{
    "resourceType": "Bundle",
    "type": "batch",
    "entry": [
        {
            "fullUrl": "urn:uuid:6b6260cd-9fc3-30c8-b7a6-6c65b5968c96",
            "resource": {
                "resourceType": "Composition",
                "id": "6b6260cd-9fc3-30c8-b7a6-6c65b5968c96",
                "identifier": {
                    "use": "official",
                    "value": "TT101"
                },
                "status": "final",
                "type": {
                    "coding": [
                        {
                            "code": "34133-9",
                            "display": "Summarization of Episode Note",
                            "system": "http://loinc.org"
                        }
                    ]
                },
                "date": "2022-10-03T21:08:18.000Z",
                "title": "Data for Alice Newman, starting 10/03/1922, ending 10/03/2022",
                "confidentiality": "N",
                "event": [
                    {
                        "period": {
                            "start": "1922-10-03"
                        }
                    }
                ],
                "section": [
                    {
                        "title": "ALLERGIES AND ADVERSE REACTIONS",
                        "text": {
                            "status": "generated",
                            "div": "<div xmlns=\"http://www.w3.org/1999/xhtml\">ALLERGIES AND ADVERSE REACTIONS</div>"
                        },
                        "code": {
                            "coding": [
                                {
                                    "code": "48765-2",
                                    "display": "Allergies, adverse reactions, alerts",
                                    "system": "http://loinc.org"
                                }
                            ]
                        },
                        "mode": "snapshot",
                        "entry": [
                            {
                                "reference": "AllergyIntolerance/35452a1c-57a7-3af8-952e-bf3f22e8a6c8",
                                "display": "Ampicillin"
                            },
                            {
                                "reference": "AllergyIntolerance/5c1ec27d-a0c0-36ca-8ec7-21d953ff1f10",
                                "display": "Penicillin G benzathine"
                            }
                        ]
                    },
                    {
                        "title": "ASSESSMENTS",
                        "text": {
                            "status": "generated",
                            "div": "<div xmlns=\"http://www.w3.org/1999/xhtml\">ASSESSMENTS</div>"
                        },
                        "code": {
                            "coding": [
                                {
                                    "code": "51848-0",
                                    "display": "Assessments",
                                    "system": "http://loinc.org"
                                }
                            ]
                        },
                        "mode": "snapshot"
                    },
                    {
                        "title": "ENCOUNTERS",
                        "text": {
                            "status": "generated",
                            "div": "<div xmlns=\"http://www.w3.org/1999/xhtml\">ENCOUNTERS</div>"
                        },
                        "code": {
                            "coding": [
                                {
                                    "code": "46240-8",
                                    "display": "Encounters",
                                    "system": "http://loinc.org"
                                }
                            ]
                        },
                        "mode": "snapshot",
                        "entry": [
                            {
                                "reference": "Encounter/fac7be6d-9182-334a-8aae-5682ddeeb0f2"
                            }
                        ]
                    },
                    {
                        "title": "Functional Status",
                        "text": {
                            "status": "generated",
                            "div": "<div xmlns=\"http://www.w3.org/1999/xhtml\">Functional Status</div>"
                        },
                        "code": {
                            "coding": [
                                {
                                    "code": "47420-5",
                                    "display": "Functional Status",
                                    "system": "http://loinc.org"
                                }
                            ]
                        },
                        "mode": "snapshot"
                    },
                    {
                        "title": "Goal Section",
                        "text": {
                            "status": "generated",
                            "div": "<div xmlns=\"http://www.w3.org/1999/xhtml\">Goal Section</div>"
                        },
                        "code": {
                            "coding": [
                                {
                                    "code": "61146-7",
                                    "display": "Goals",
                                    "system": "http://loinc.org"
                                }
                            ]
                        },
                        "mode": "snapshot"
                    },
                    {
                        "title": "Health Concerns Section",
                        "text": {
                            "status": "generated",
                            "div": "<div xmlns=\"http://www.w3.org/1999/xhtml\">Health Concerns Section</div>"
                        },
                        "code": {
                            "coding": [
                                {
                                    "code": "75310-3",
                                    "display": "Health Concerns Document",
                                    "system": "http://loinc.org"
                                }
                            ]
                        },
                        "mode": "snapshot"
                    },
                    {
                        "title": "IMMUNIZATIONS",
                        "text": {
                            "status": "generated",
                            "div": "<div xmlns=\"http://www.w3.org/1999/xhtml\">IMMUNIZATIONS</div>"
                        },
                        "code": {
                            "coding": [
                                {
                                    "code": "11369-6",
                                    "display": "Immunizations",
                                    "system": "http://loinc.org"
                                }
                            ]
                        },
                        "mode": "snapshot",
                        "entry": [
                            {
                                "reference": "Immunization/4aea1ddc-b0e4-32d0-b4ae-bd19b8f713c1"
                            },
                            {
                                "reference": "Immunization/e7fe50fa-9539-3802-b08d-79c8df38e16c"
                            },
                            {
                                "reference": "Immunization/47fc0a61-d3db-3d5b-a280-477eb69f11dc"
                            }
                        ]
                    },
                    {
                        "title": "Implants",
                        "text": {
                            "status": "generated",
                            "div": "<div xmlns=\"http://www.w3.org/1999/xhtml\">Implants</div>"
                        },
                        "code": {
                            "coding": [
                                {
                                    "code": "46264-8",
                                    "display": "Medical Equipment",
                                    "system": "http://loinc.org"
                                }
                            ]
                        },
                        "mode": "snapshot",
                        "entry": [
                            {
                                "reference": "Device/e5ce5c69-43e5-38ee-89bb-ec0e53496856"
                            }
                        ]
                    },
                    {
                        "title": "MEDICATIONS",
                        "text": {
                            "status": "generated",
                            "div": "<div xmlns=\"http://www.w3.org/1999/xhtml\">MEDICATIONS</div>"
                        },
                        "code": {
                            "coding": [
                                {
                                    "code": "10160-0",
                                    "display": "History of medication use",
                                    "system": "http://loinc.org"
                                }
                            ]
                        },
                        "mode": "snapshot",
                        "entry": [
                            {
                                "reference": "MedicationStatement/dc7504d9-28fe-37f6-9ab5-d245c5b8b6d3"
                            },
                            {
                                "reference": "MedicationStatement/7e62b4fa-a024-399f-8399-50a79ac7d13f"
                            },
                            {
                                "reference": "MedicationStatement/eceb6d56-b43c-3489-b731-13a0ee47b6fb"
                            },
                            {
                                "reference": "MedicationStatement/15ca17a1-60f2-3288-a5c5-297176904821"
                            }
                        ]
                    },
                    {
                        "title": "MENTAL STATUS",
                        "text": {
                            "status": "generated",
                            "div": "<div xmlns=\"http://www.w3.org/1999/xhtml\">MENTAL STATUS</div>"
                        },
                        "code": {
                            "coding": [
                                {
                                    "code": "10190-7",
                                    "display": "MENTAL STATUS",
                                    "system": "http://loinc.org"
                                }
                            ]
                        },
                        "mode": "snapshot"
                    },
                    {
                        "title": "Plan of Treatment",
                        "text": {
                            "status": "generated",
                            "div": "<div xmlns=\"http://www.w3.org/1999/xhtml\">Plan of Treatment</div>"
                        },
                        "code": {
                            "coding": [
                                {
                                    "code": "18776-5",
                                    "display": "Plan of Care",
                                    "system": "http://loinc.org"
                                }
                            ]
                        },
                        "mode": "snapshot",
                        "entry": [
                            {
                                "reference": "CarePlan/951c7ffc-b3e1-3365-8348-429bda5dd09e"
                            }
                        ]
                    },
                    {
                        "title": "Problem List",
                        "text": {
                            "status": "generated",
                            "div": "<div xmlns=\"http://www.w3.org/1999/xhtml\">Problem List</div>"
                        },
                        "code": {
                            "coding": [
                                {
                                    "code": "11450-4",
                                    "display": "Problem List",
                                    "system": "http://loinc.org"
                                }
                            ]
                        },
                        "mode": "snapshot",
                        "entry": [
                            {
                                "reference": "Condition/05d39d5f-5170-342c-a8d1-7b032c4d947c"
                            },
                            {
                                "reference": "Condition/28d7f261-6e57-3f58-9a0b-ee807f4109b0"
                            },
                            {
                                "reference": "Condition/9a89d9e6-e233-3f21-b56a-d8adf027066c"
                            },
                            {
                                "reference": "Condition/57823db5-db4c-36a4-8b7f-0326aa8fde58"
                            },
                            {
                                "reference": "Condition/3e25c277-b8e7-3fb0-a912-53092102bae2"
                            }
                        ]
                    },
                    {
                        "title": "PROCEDURES",
                        "text": {
                            "status": "generated",
                            "div": "<div xmlns=\"http://www.w3.org/1999/xhtml\">PROCEDURES</div>"
                        },
                        "code": {
                            "coding": [
                                {
                                    "code": "47519-4",
                                    "display": "History of Procedures",
                                    "system": "http://loinc.org"
                                }
                            ]
                        },
                        "mode": "snapshot",
                        "entry": [
                            {
                                "reference": "Procedure/d2e2dde3-6720-31e7-b5b3-e55ea84e9afd"
                            },
                            {
                                "reference": "Procedure/c00837f0-22d5-300c-b93b-0ffc0a4e6d36"
                            }
                        ]
                    },
                    {
                        "title": "Results",
                        "text": {
                            "status": "generated",
                            "div": "<div xmlns=\"http://www.w3.org/1999/xhtml\">Results</div>"
                        },
                        "code": {
                            "coding": [
                                {
                                    "code": "30954-2",
                                    "display": "Relevant diagnostic tests and/or laboratory data",
                                    "system": "http://loinc.org"
                                }
                            ]
                        },
                        "mode": "snapshot",
                        "entry": [
                            {
                                "reference": "DiagnosticReport/754b3abe-9a63-3861-b478-9d4033938021"
                            },
                            {
                                "reference": "DiagnosticReport/b8546265-f0d9-3b22-914e-879f2e20a272"
                            }
                        ]
                    },
                    {
                        "title": "Social History",
                        "text": {
                            "status": "generated",
                            "div": "<div xmlns=\"http://www.w3.org/1999/xhtml\">Social History</div>"
                        },
                        "code": {
                            "coding": [
                                {
                                    "code": "29762-2",
                                    "display": "Social History",
                                    "system": "http://loinc.org"
                                }
                            ]
                        },
                        "mode": "snapshot",
                        "entry": [
                            {
                                "reference": "Observation/b368718c-55df-36bb-9d28-069e32c83207",
                                "display": "Assertion"
                            },
                            {
                                "reference": "Observation/709c0bb8-8f5b-388b-99ea-a64ab5caec1f"
                            },
                            {
                                "reference": "Observation/57b6b838-470d-34ff-8ef0-679a3e40b47e"
                            }
                        ]
                    },
                    {
                        "title": "Vitals",
                        "text": {
                            "status": "generated",
                            "div": "<div xmlns=\"http://www.w3.org/1999/xhtml\">Vitals</div>"
                        },
                        "code": {
                            "coding": [
                                {
                                    "code": "8716-3",
                                    "display": "Vital Signs",
                                    "system": "http://loinc.org"
                                }
                            ]
                        },
                        "mode": "snapshot",
                        "entry": [
                            {
                                "reference": "Observation/7aafd289-1ca6-358f-96aa-3007cd7ecce1",
                                "display": "Inhaled oxygen concentration"
                            },
                            {
                                "reference": "Observation/8484410f-1274-3dbf-9474-1c35a0fa6290",
                                "display": "Blood pressure panel with all children optional"
                            },
                            {
                                "reference": "Observation/26b487e9-f6b3-3ec8-9429-1f9d68191bba",
                                "display": "Body height"
                            },
                            {
                                "reference": "Observation/29df401f-71cd-3db1-ae9d-58ca43179c2d",
                                "display": "Body Temperature"
                            },
                            {
                                "reference": "Observation/9a805705-cc50-33c8-9789-b574f62c1cfc",
                                "display": "Oxygen saturation in Arterial blood by Pulse oximetry"
                            },
                            {
                                "reference": "Observation/e22b2219-7c4e-3b7f-a570-035462be9b4d",
                                "display": "Heart Rate"
                            },
                            {
                                "reference": "Observation/ded9347c-a4f5-349c-86ff-1890b01c02c1",
                                "display": "Respiratory Rate"
                            },
                            {
                                "reference": "Observation/001ad12b-d972-3c32-9dde-d8942c463cf6",
                                "display": "Body weight"
                            },
                            {
                                "reference": "Observation/8195a62a-47de-3058-95dd-46d4b787c505",
                                "display": "Body weight"
                            },
                            {
                                "reference": "Observation/e0728d50-c25e-3924-b6d7-27daa19c85ac",
                                "display": "Blood pressure panel with all children optional"
                            },
                            {
                                "reference": "Observation/ee364c00-e8cc-38f4-a7d5-fb7568d8098f",
                                "display": "Body height"
                            },
                            {
                                "reference": "Observation/b4fbcb97-060f-3d7d-b4b9-bbadf84bcd54",
                                "display": "Blood pressure panel with all children optional"
                            }
                        ]
                    },
                    {
                        "title": "REASON FOR REFERRAL",
                        "text": {
                            "status": "generated",
                            "div": "<div xmlns=\"http://www.w3.org/1999/xhtml\">REASON FOR REFERRAL</div>"
                        },
                        "code": {
                            "coding": [
                                {
                                    "code": "42349-1",
                                    "display": "Reason for Referral",
                                    "system": "http://loinc.org"
                                }
                            ]
                        },
                        "mode": "snapshot"
                    }
                ],
                "subject": {
                    "reference": "Patient/f40da2df-7505-315a-9acb-55513a02c37b"
                },
                "custodian": {
                    "reference": "Organization/3bfc3db2-cf06-379a-88cb-03444c877632"
                },
                "author": [
                    {
                        "reference": "Practitioner/17763d72-7526-32d1-a535-e60859682208"
                    },
                    {
                        "reference": "Practitioner/ead05b2c-8f43-3a9f-946d-1553f5aaa816"
                    }
                ]
            },
            "request": {
                "method": "PUT",
                "url": "Composition/6b6260cd-9fc3-30c8-b7a6-6c65b5968c96"
            }
        },
        {
            "fullUrl": "urn:uuid:3bfc3db2-cf06-379a-88cb-03444c877632",
            "resource": {
                "resourceType": "Organization",
                "id": "3bfc3db2-cf06-379a-88cb-03444c877632",
                "identifier": [
                    {
                        "system": "http://hl7.org/fhir/sid/us-npi",
                        "value": "99999999"
                    }
                ],
                "active": true,
                "name": "Iora Health",
                "address": [
                    {
                        "line": [
                            "101 Tremont Street, 6th Floor"
                        ],
                        "city": "Boston",
                        "state": "MA",
                        "country": "US",
                        "postalCode": "02108"
                    }
                ],
                "telecom": [
                    {
                        "system": "phone",
                        "value": "617-454-4672",
                        "use": "work"
                    }
                ]
            },
            "request": {
                "method": "PUT",
                "url": "Organization/3bfc3db2-cf06-379a-88cb-03444c877632"
            }
        },
        {
            "fullUrl": "urn:uuid:17763d72-7526-32d1-a535-e60859682208",
            "resource": {
                "resourceType": "Practitioner",
                "meta": {
                    "profile": [
                        "http://hl7.org/fhir/us/core/StructureDefinition/us-core-practitioner"
                    ]
                },
                "id": "17763d72-7526-32d1-a535-e60859682208",
                "identifier": [
                    {
                        "system": "http://hl7.org/fhir/sid/us-npi",
                        "value": "99999999"
                    }
                ],
                "name": [
                    {
                        "family": "Davis",
                        "given": [
                            "Albert"
                        ]
                    }
                ],
                "address": [
                    {
                        "line": [
                            "2472, Rocky  place"
                        ],
                        "city": "Beaverton",
                        "state": "OR",
                        "country": "US",
                        "postalCode": "97006"
                    }
                ],
                "telecom": [
                    {
                        "system": "phone",
                        "value": "555-555-1002",
                        "use": "work"
                    }
                ],
                "qualification": [
                    {
                        "code": {
                            "coding": [
                                {
                                    "code": "200000000X",
                                    "display": "Neighborhood Physicians Practice",
                                    "system": "http://nucc.org/provider-taxonomy"
                                }
                            ]
                        }
                    }
                ]
            },
            "request": {
                "method": "PUT",
                "url": "Practitioner/17763d72-7526-32d1-a535-e60859682208"
            }
        },
        {
            "fullUrl": "urn:uuid:604a79b8-d538-3959-a3ef-5ac66ee03e08",
            "resource": {
                "resourceType": "Location",
                "id": "604a79b8-d538-3959-a3ef-5ac66ee03e08",
                "identifier": [
                    {
                        "system": "http://hl7.org/fhir/sid/us-npi",
                        "value": "99999999"
                    }
                ],
                "address": {
                    "line": [
                        "2472, Rocky  place"
                    ],
                    "city": "Beaverton",
                    "state": "OR",
                    "country": "US",
                    "postalCode": "97006"
                },
                "telecom": [
                    {
                        "system": "phone",
                        "value": "555-555-1002",
                        "use": "work"
                    }
                ],
                "type": [
                    {
                        "coding": [
                            {
                                "code": "200000000X",
                                "display": "Neighborhood Physicians Practice",
                                "system": "http://nucc.org/provider-taxonomy"
                            }
                        ]
                    }
                ]
            },
            "request": {
                "method": "PUT",
                "url": "Location/604a79b8-d538-3959-a3ef-5ac66ee03e08"
            }
        },
        {
            "fullUrl": "urn:uuid:ead05b2c-8f43-3a9f-946d-1553f5aaa816",
            "resource": {
                "resourceType": "Practitioner",
                "meta": {
                    "profile": [
                        "http://hl7.org/fhir/us/core/StructureDefinition/us-core-practitioner"
                    ]
                },
                "id": "ead05b2c-8f43-3a9f-946d-1553f5aaa816",
                "identifier": [
                    {
                        "system": "http://hl7.org/fhir/sid/us-npi",
                        "value": "999999943252"
                    }
                ],
                "name": [
                    {
                        "family": "Davis",
                        "given": [
                            "Tracy"
                        ]
                    }
                ],
                "address": [
                    {
                        "line": [
                            "2472, Rocky  place"
                        ],
                        "city": "Beaverton",
                        "state": "OR",
                        "country": "US",
                        "postalCode": "97006"
                    }
                ],
                "telecom": [
                    {
                        "system": "phone",
                        "value": "555-555-1002",
                        "use": "work"
                    }
                ]
            },
            "request": {
                "method": "PUT",
                "url": "Practitioner/ead05b2c-8f43-3a9f-946d-1553f5aaa816"
            }
        },
        {
            "fullUrl": "urn:uuid:f40da2df-7505-315a-9acb-55513a02c37b",
            "resource": {
                "resourceType": "Patient",
                "meta": {
                    "profile": [
                        "http://hl7.org/fhir/us/core/StructureDefinition/us-core-patient"
                    ]
                },
                "id": "f40da2df-7505-315a-9acb-55513a02c37b",
                "identifier": [
                    {
                        "system": "urn:oid:2.16.840.1.113883.19.5.99999.2",
                        "value": "998991"
                    }
                ],
                "name": [
                    {
                        "family": "Newman",
                        "given": [
                            "Alice",
                            "Jones",
                            "Alicia"
                        ]
                    }
                ],
                "active": true,
                "birthDate": "1970-05-01",
                "gender": "female",
                "extension": [
                    {
                        "url": "http://hl7.org/fhir/us/core/StructureDefinition/us-core-race",
                        "extension": [
                            {
                                "url": "ombCategory",
                                "valueCoding": {
                                    "code": "2106-3",
                                    "display": "White",
                                    "system": "urn:oid:2.16.840.1.113883.6.238"
                                }
                            },
                            {
                                "url": "detailed",
                                "valueCoding": {
                                    "code": "2108-9",
                                    "display": "European",
                                    "system": "urn:oid:2.16.840.1.113883.6.238"
                                }
                            },
                            {
                                "url": "text",
                                "valueString": "Mixed"
                            }
                        ]
                    },
                    {
                        "url": "http://hl7.org/fhir/us/core/StructureDefinition/us-core-ethnicity",
                        "extension": [
                            {
                                "url": "ombCategory",
                                "valueCoding": {
                                    "code": "2186-5",
                                    "display": "Not Hispanic or Latino",
                                    "system": "urn:oid:2.16.840.1.113883.6.238"
                                }
                            },
                            {
                                "url": "text",
                                "valueString": "Not Hispanic or Latino"
                            }
                        ]
                    },
                    {
                        "url": "http://hl7.org/fhir/us/core/StructureDefinition/us-core-birthsex",
                        "valueCode": "F"
                    }
                ],
                "address": [
                    {
                        "line": [
                            "1357, Amber Dr"
                        ],
                        "city": "Beaverton",
                        "state": "OR",
                        "country": "US",
                        "postalCode": "97006",
                        "period": {
                            "start": "1970-05-01"
                        }
                    }
                ],
                "telecom": [
                    {
                        "system": "phone",
                        "value": "(555)723-1544",
                        "use": "home"
                    },
                    {
                        "system": "phone",
                        "value": "(555)777-1234",
                        "use": "mobile"
                    }
                ],
                "communication": [
                    {
                        "language": {
                            "coding": [
                                {
                                    "system": "urn:ietf:bcp:47",
                                    "code": "en",
                                    "display": "English"
                                }
                            ]
                        },
                        "preferred": true
                    }
                ]
            },
            "request": {
                "method": "PUT",
                "url": "Patient/f40da2df-7505-315a-9acb-55513a02c37b"
            }
        },
        {
            "fullUrl": "urn:uuid:17763d72-7526-32d1-a535-e60859682208",
            "resource": {
                "resourceType": "CareTeam",
                "id": "17763d72-7526-32d1-a535-e60859682208",
                "identifier": [
                    {
                        "system": "http://hl7.org/fhir/sid/us-npi",
                        "value": "99999999"
                    }
                ],
                "name": "USCoreCareTeam",
                "status": "active",
                "telecom": [
                    {
                        "system": "phone",
                        "value": "555-555-1002",
                        "use": "work"
                    }
                ],
                "participant": [
                    {
                        "role": [
                            {
                                "coding": [
                                    {
                                        "system": "http://snomed.info/sct",
                                        "code": "116154003",
                                        "display": "Patient"
                                    }
                                ],
                                "text": "Patient"
                            }
                        ],
                        "member": {
                            "reference": "Patient/f40da2df-7505-315a-9acb-55513a02c37b",
                            "display": "Alice Newman"
                        }
                    },
                    {
                        "role": [
                            {
                                "coding": [
                                    {
                                        "system": "http://snomed.info/sct",
                                        "code": "432100008",
                                        "display": "Health coach"
                                    }
                                ],
                                "text": "Healthcare professional (occupation)"
                            }
                        ],
                        "member": {
                            "reference": "Practitioner/ead05b2c-8f43-3a9f-946d-1553f5aaa816",
                            "display": "Tracy Davis"
                        }
                    },
                    {
                        "role": [
                            {
                                "coding": [
                                    {
                                        "system": "http://snomed.info/sct",
                                        "code": "309343006",
                                        "display": "Physician (occupation)"
                                    }
                                ],
                                "text": "Physician (occupation)"
                            }
                        ],
                        "member": {
                            "reference": "Practitioner/17763d72-7526-32d1-a535-e60859682208",
                            "display": "Albert Davis"
                        }
                    }
                ],
                "subject": {
                    "reference": "Patient/f40da2df-7505-315a-9acb-55513a02c37b"
                }
            },
            "request": {
                "method": "PUT",
                "url": "CareTeam/17763d72-7526-32d1-a535-e60859682208"
            }
        },
        {
            "fullUrl": "urn:uuid:79861103-c896-356e-9a38-2016eb12ad61",
            "resource": {
                "resourceType": "AllergyIntolerance",
                "id": "79861103-c896-356e-9a38-2016eb12ad61",
                "identifier": [
                    {
                        "system": "urn:ietf:rfc:3986",
                        "value": "urn:uuid:c7533098-011b-48e1-bd95-690dbb533a8c"
                    }
                ],
                "clinicalStatus": {
                    "coding": [
                        {
                            "system": "http://terminology.hl7.org/CodeSystem/allergyintolerance-clinical",
                            "code": "active"
                        }
                    ]
                },
                "verificationStatus": {
                    "coding": [
                        {
                            "system": "http://terminology.hl7.org/CodeSystem/allergyintolerance-verification",
                            "code": "confirmed",
                            "display": "Confirmed"
                        }
                    ]
                },
                "code": {
                    "coding": [
                        {
                            "code": "247472004",
                            "display": "Hives",
                            "system": "http://snomed.info/sct"
                        }
                    ]
                },
                "reaction": [
                    {
                        "substance": {
                            "coding": [
                                {
                                    "code": "733",
                                    "display": "Ampicillin",
                                    "system": "http://www.nlm.nih.gov/research/umls/rxnorm"
                                }
                            ]
                        },
                        "manifestation": [
                            {
                                "coding": [
                                    {
                                        "code": "247472004",
                                        "display": "Hives",
                                        "system": "http://snomed.info/sct"
                                    }
                                ]
                            }
                        ]
                    }
                ],
                "onsetDateTime": "1980-10-05",
                "patient": {
                    "reference": "Patient/f40da2df-7505-315a-9acb-55513a02c37b"
                }
            },
            "request": {
                "method": "PUT",
                "url": "AllergyIntolerance/79861103-c896-356e-9a38-2016eb12ad61"
            }
        },
        {
            "fullUrl": "urn:uuid:a8e2b2f0-3e6b-3315-a0e3-1a5858f2142a",
            "resource": {
                "resourceType": "AllergyIntolerance",
                "id": "a8e2b2f0-3e6b-3315-a0e3-1a5858f2142a",
                "identifier": [
                    {
                        "system": "urn:ietf:rfc:3986",
                        "value": "urn:uuid:f463c442-0eb6-4193-850c-1bfd93c599a3"
                    }
                ],
                "clinicalStatus": {
                    "coding": [
                        {
                            "system": "http://terminology.hl7.org/CodeSystem/allergyintolerance-clinical",
                            "code": "active"
                        }
                    ]
                },
                "verificationStatus": {
                    "coding": [
                        {
                            "system": "http://terminology.hl7.org/CodeSystem/allergyintolerance-verification",
                            "code": "confirmed",
                            "display": "Confirmed"
                        }
                    ]
                },
                "code": {
                    "coding": [
                        {
                            "code": "247472004",
                            "display": "Hives",
                            "system": "http://snomed.info/sct"
                        }
                    ]
                },
                "reaction": [
                    {
                        "substance": {
                            "coding": [
                                {
                                    "code": "7980",
                                    "display": "Penicillin G benzathine",
                                    "system": "http://www.nlm.nih.gov/research/umls/rxnorm"
                                }
                            ]
                        },
                        "manifestation": [
                            {
                                "coding": [
                                    {
                                        "code": "247472004",
                                        "display": "Hives",
                                        "system": "http://snomed.info/sct"
                                    }
                                ]
                            }
                        ]
                    }
                ],
                "onsetDateTime": "1980-10-05",
                "patient": {
                    "reference": "Patient/f40da2df-7505-315a-9acb-55513a02c37b"
                }
            },
            "request": {
                "method": "PUT",
                "url": "AllergyIntolerance/a8e2b2f0-3e6b-3315-a0e3-1a5858f2142a"
            }
        },
        {
            "fullUrl": "urn:uuid:429247b8-d638-326f-93a0-cfcc6d3faaaf",
            "resource": {
                "resourceType": "MedicationStatement",
                "id": "429247b8-d638-326f-93a0-cfcc6d3faaaf",
                "identifier": [
                    {
                        "system": "urn:ietf:rfc:3986",
                        "value": "urn:uuid:20dc71d7-cb4c-40b1-a60b-9bc7d1fbbc4c"
                    }
                ],
                "status": "active",
                "effectivePeriod": {
                    "start": "2015-06-22"
                },
                "dosage": [
                    {
                        "text": "Inject 1 syringe intramuscularly once a week",
                        "doseAndRate": [
                            {
                                "doseQuantity": {
                                    "value": 1
                                }
                            }
                        ]
                    }
                ],
                "subject": {
                    "reference": "Patient/f40da2df-7505-315a-9acb-55513a02c37b"
                },
                "medicationReference": {
                    "reference": "Medication/a6491cac-c1ee-3c02-a78e-063c467a9350"
                }
            },
            "request": {
                "method": "PUT",
                "url": "MedicationStatement/429247b8-d638-326f-93a0-cfcc6d3faaaf"
            }
        },
        {
            "fullUrl": "urn:uuid:a6491cac-c1ee-3c02-a78e-063c467a9350",
            "resource": {
                "resourceType": "Medication",
                "id": "a6491cac-c1ee-3c02-a78e-063c467a9350",
                "code": {
                    "coding": [
                        {
                            "code": "731241",
                            "display": "Aranesp (in polysorbate) 500 mcg/mL syringe",
                            "system": "http://www.nlm.nih.gov/research/umls/rxnorm"
                        }
                    ]
                }
            },
            "request": {
                "method": "PUT",
                "url": "Medication/a6491cac-c1ee-3c02-a78e-063c467a9350"
            }
        },
        {
            "fullUrl": "urn:uuid:4a40b9fa-79eb-3395-87cc-e8d6cd684f5b",
            "resource": {
                "resourceType": "MedicationRequest",
                "id": "4a40b9fa-79eb-3395-87cc-e8d6cd684f5b",
                "identifier": [
                    {
                        "system": "urn:ietf:rfc:3986",
                        "value": "urn:uuid:20dc71d7-cb4c-40b1-a60b-9bc7d1fbbc4c"
                    }
                ],
                "intent": "order",
                "status": "active",
                "reportedBoolean": false,
                "authoredOn": "2015-06-22",
                "dosageInstruction": [
                    {
                        "text": "Inject 1 syringe intramuscularly once a week",
                        "doseAndRate": [
                            {
                                "doseQuantity": {
                                    "value": 1
                                }
                            }
                        ]
                    }
                ],
                "subject": {
                    "reference": "Patient/f40da2df-7505-315a-9acb-55513a02c37b"
                },
                "medicationReference": {
                    "reference": "Medication/a6491cac-c1ee-3c02-a78e-063c467a9350"
                },
                "requester": {
                    "reference": "Practitioner/77feb0a0-c8a6-342a-98da-5b3375442250"
                }
            },
            "request": {
                "method": "PUT",
                "url": "MedicationRequest/4a40b9fa-79eb-3395-87cc-e8d6cd684f5b"
            }
        },
        {
            "fullUrl": "urn:uuid:77feb0a0-c8a6-342a-98da-5b3375442250",
            "resource": {
                "resourceType": "Practitioner",
                "meta": {
                    "profile": [
                        "http://hl7.org/fhir/us/core/StructureDefinition/us-core-practitioner"
                    ]
                },
                "id": "77feb0a0-c8a6-342a-98da-5b3375442250",
                "identifier": [
                    {
                        "system": "http://hl7.org/fhir/sid/us-npi",
                        "value": "99999999"
                    }
                ],
                "name": [
                    {
                        "family": "Zelaznik",
                        "given": [
                            "Steve"
                        ]
                    }
                ],
                "telecom": [
                    {
                        "system": "phone",
                        "value": "UNK",
                        "use": "work"
                    }
                ],
                "qualification": [
                    {
                        "code": {
                            "coding": [
                                {
                                    "code": "UNK"
                                }
                            ]
                        }
                    }
                ]
            },
            "request": {
                "method": "PUT",
                "url": "Practitioner/77feb0a0-c8a6-342a-98da-5b3375442250"
            }
        },
        {
            "fullUrl": "urn:uuid:56862355-a18e-3fcf-9c32-8c03a6ca1682",
            "resource": {
                "resourceType": "MedicationStatement",
                "id": "56862355-a18e-3fcf-9c32-8c03a6ca1682",
                "identifier": [
                    {
                        "system": "urn:ietf:rfc:3986",
                        "value": "urn:uuid:91bbe173-60a6-485e-b4e0-165fa2d4f37f"
                    }
                ],
                "status": "active",
                "dosage": [
                    {
                        "text": "Take 1 tablet by mouth once a day",
                        "doseAndRate": [
                            {
                                "doseQuantity": {
                                    "value": 1
                                }
                            }
                        ]
                    }
                ],
                "subject": {
                    "reference": "Patient/f40da2df-7505-315a-9acb-55513a02c37b"
                },
                "medicationReference": {
                    "reference": "Medication/3a5b2405-cbc2-3370-a18d-a4c96b12a816"
                }
            },
            "request": {
                "method": "PUT",
                "url": "MedicationStatement/56862355-a18e-3fcf-9c32-8c03a6ca1682"
            }
        },
        {
            "fullUrl": "urn:uuid:3a5b2405-cbc2-3370-a18d-a4c96b12a816",
            "resource": {
                "resourceType": "Medication",
                "id": "3a5b2405-cbc2-3370-a18d-a4c96b12a816",
                "code": {
                    "coding": [
                        {
                            "code": "308460",
                            "display": "azithromycin 250 mg tablet",
                            "system": "http://www.nlm.nih.gov/research/umls/rxnorm"
                        }
                    ]
                }
            },
            "request": {
                "method": "PUT",
                "url": "Medication/3a5b2405-cbc2-3370-a18d-a4c96b12a816"
            }
        },
        {
            "fullUrl": "urn:uuid:56862355-a18e-3fcf-9c32-8c03a6ca1682",
            "resource": {
                "resourceType": "MedicationRequest",
                "id": "56862355-a18e-3fcf-9c32-8c03a6ca1682",
                "identifier": [
                    {
                        "system": "urn:ietf:rfc:3986",
                        "value": "urn:uuid:91bbe173-60a6-485e-b4e0-165fa2d4f37f"
                    }
                ],
                "intent": "plan",
                "status": "active",
                "reportedBoolean": true,
                "dosageInstruction": [
                    {
                        "text": "Take 1 tablet by mouth once a day",
                        "doseAndRate": [
                            {
                                "doseQuantity": {
                                    "value": 1
                                }
                            }
                        ]
                    }
                ],
                "subject": {
                    "reference": "Patient/f40da2df-7505-315a-9acb-55513a02c37b"
                },
                "requester": {
                    "reference": "Patient/f40da2df-7505-315a-9acb-55513a02c37b"
                },
                "medicationReference": {
                    "reference": "Medication/3a5b2405-cbc2-3370-a18d-a4c96b12a816"
                }
            },
            "request": {
                "method": "PUT",
                "url": "MedicationRequest/56862355-a18e-3fcf-9c32-8c03a6ca1682"
            }
        },
        {
            "fullUrl": "urn:uuid:c6b675b5-9012-337d-a66a-ad592ec8c42f",
            "resource": {
                "resourceType": "MedicationStatement",
                "id": "c6b675b5-9012-337d-a66a-ad592ec8c42f",
                "identifier": [
                    {
                        "system": "urn:ietf:rfc:3986",
                        "value": "urn:uuid:764be9e7-76ea-40c9-9903-1b3291699d62"
                    }
                ],
                "status": "active",
                "effectivePeriod": {
                    "start": "2015-06-22"
                },
                "dosage": [
                    {
                        "text": "Inject 1 unit twice a day as directed",
                        "doseAndRate": [
                            {
                                "doseQuantity": {
                                    "value": 1
                                }
                            }
                        ]
                    }
                ],
                "subject": {
                    "reference": "Patient/f40da2df-7505-315a-9acb-55513a02c37b"
                },
                "medicationReference": {
                    "reference": "Medication/0ca58338-80c4-3637-8f7f-2ad7a174d09c"
                }
            },
            "request": {
                "method": "PUT",
                "url": "MedicationStatement/c6b675b5-9012-337d-a66a-ad592ec8c42f"
            }
        },
        {
            "fullUrl": "urn:uuid:0ca58338-80c4-3637-8f7f-2ad7a174d09c",
            "resource": {
                "resourceType": "Medication",
                "id": "0ca58338-80c4-3637-8f7f-2ad7a174d09c",
                "code": {
                    "coding": [
                        {
                            "code": "309090",
                            "display": "ceftriaxone 10 gram recon soln",
                            "system": "http://www.nlm.nih.gov/research/umls/rxnorm"
                        }
                    ]
                }
            },
            "request": {
                "method": "PUT",
                "url": "Medication/0ca58338-80c4-3637-8f7f-2ad7a174d09c"
            }
        },
        {
            "fullUrl": "urn:uuid:23669a27-5b99-3f15-8327-332943be3485",
            "resource": {
                "resourceType": "MedicationRequest",
                "id": "23669a27-5b99-3f15-8327-332943be3485",
                "identifier": [
                    {
                        "system": "urn:ietf:rfc:3986",
                        "value": "urn:uuid:764be9e7-76ea-40c9-9903-1b3291699d62"
                    }
                ],
                "intent": "order",
                "status": "active",
                "reportedBoolean": false,
                "authoredOn": "2015-06-22",
                "dosageInstruction": [
                    {
                        "text": "Inject 1 unit twice a day as directed",
                        "doseAndRate": [
                            {
                                "doseQuantity": {
                                    "value": 1
                                }
                            }
                        ]
                    }
                ],
                "subject": {
                    "reference": "Patient/f40da2df-7505-315a-9acb-55513a02c37b"
                },
                "medicationReference": {
                    "reference": "Medication/0ca58338-80c4-3637-8f7f-2ad7a174d09c"
                },
                "requester": {
                    "reference": "Practitioner/77feb0a0-c8a6-342a-98da-5b3375442250"
                }
            },
            "request": {
                "method": "PUT",
                "url": "MedicationRequest/23669a27-5b99-3f15-8327-332943be3485"
            }
        },
        {
            "fullUrl": "urn:uuid:eb7e1a99-4775-3bcb-95c3-ab51d9925914",
            "resource": {
                "resourceType": "MedicationStatement",
                "id": "eb7e1a99-4775-3bcb-95c3-ab51d9925914",
                "identifier": [
                    {
                        "system": "urn:ietf:rfc:3986",
                        "value": "urn:uuid:4b7d49a4-e157-4b60-be99-6006a793c60a"
                    }
                ],
                "status": "active",
                "effectivePeriod": {
                    "start": "2015-06-22"
                },
                "dosage": [
                    {
                        "text": "Take 1 tablet by mouth as needed",
                        "doseAndRate": [
                            {
                                "doseQuantity": {
                                    "value": 1
                                }
                            }
                        ]
                    }
                ],
                "subject": {
                    "reference": "Patient/f40da2df-7505-315a-9acb-55513a02c37b"
                },
                "medicationReference": {
                    "reference": "Medication/f1bf406b-00cb-333d-bfe9-1c9e0a070162"
                }
            },
            "request": {
                "method": "PUT",
                "url": "MedicationStatement/eb7e1a99-4775-3bcb-95c3-ab51d9925914"
            }
        },
        {
            "fullUrl": "urn:uuid:f1bf406b-00cb-333d-bfe9-1c9e0a070162",
            "resource": {
                "resourceType": "Medication",
                "id": "f1bf406b-00cb-333d-bfe9-1c9e0a070162",
                "code": {
                    "coding": [
                        {
                            "code": "209459",
                            "display": "Tylenol Extra Strength 500 mg tablet",
                            "system": "http://www.nlm.nih.gov/research/umls/rxnorm"
                        }
                    ]
                }
            },
            "request": {
                "method": "PUT",
                "url": "Medication/f1bf406b-00cb-333d-bfe9-1c9e0a070162"
            }
        },
        {
            "fullUrl": "urn:uuid:bdfd4b79-f7e6-3d9f-9e8f-4798414cd598",
            "resource": {
                "resourceType": "MedicationRequest",
                "id": "bdfd4b79-f7e6-3d9f-9e8f-4798414cd598",
                "identifier": [
                    {
                        "system": "urn:ietf:rfc:3986",
                        "value": "urn:uuid:4b7d49a4-e157-4b60-be99-6006a793c60a"
                    }
                ],
                "intent": "order",
                "status": "active",
                "reportedBoolean": false,
                "authoredOn": "2015-06-22",
                "dosageInstruction": [
                    {
                        "text": "Take 1 tablet by mouth as needed",
                        "doseAndRate": [
                            {
                                "doseQuantity": {
                                    "value": 1
                                }
                            }
                        ]
                    }
                ],
                "subject": {
                    "reference": "Patient/f40da2df-7505-315a-9acb-55513a02c37b"
                },
                "medicationReference": {
                    "reference": "Medication/f1bf406b-00cb-333d-bfe9-1c9e0a070162"
                },
                "requester": {
                    "reference": "Practitioner/77feb0a0-c8a6-342a-98da-5b3375442250"
                }
            },
            "request": {
                "method": "PUT",
                "url": "MedicationRequest/bdfd4b79-f7e6-3d9f-9e8f-4798414cd598"
            }
        },
        {
            "fullUrl": "urn:uuid:ffb4b66f-cffb-3afe-a9e7-d75534d088f3",
            "resource": {
                "resourceType": "Condition",
                "id": "ffb4b66f-cffb-3afe-a9e7-d75534d088f3",
                "identifier": [
                    {
                        "system": "urn:ietf:rfc:3986",
                        "value": "urn:uuid:1.3.6.1.4.1.22812.4.111.0.4.1.32939"
                    }
                ],
                "verificationStatus": {
                    "coding": [
                        {
                            "system": "http://terminology.hl7.org/CodeSystem/condition-ver-status",
                            "code": "confirmed"
                        }
                    ]
                },
                "category": [
                    {
                        "coding": [
                            {
                                "system": "http://snomed.info/sct",
                                "code": "55607006",
                                "display": "Problem"
                            },
                            {
                                "system": "http://terminology.hl7.org/CodeSystem/condition-category",
                                "code": "problem-list-item"
                            }
                        ]
                    }
                ],
                "clinicalStatus": {
                    "coding": [
                        {
                            "system": "http://terminology.hl7.org/CodeSystem/condition-clinical",
                            "code": "inactive"
                        }
                    ]
                },
                "code": {
                    "coding": [
                        {
                            "code": "244.8",
                            "display": "Other specified acquired hypothyroidism",
                            "system": "urn:oid:2.16.840.1.113883.6.103"
                        }
                    ]
                },
                "onsetDateTime": "2006-12-31T05:00:00.000Z",
                "subject": {
                    "reference": "Patient/f40da2df-7505-315a-9acb-55513a02c37b"
                }
            },
            "request": {
                "method": "PUT",
                "url": "Condition/ffb4b66f-cffb-3afe-a9e7-d75534d088f3"
            }
        },
        {
            "fullUrl": "urn:uuid:e85a5f6b-a9b4-3f86-a9d7-7095e485351b",
            "resource": {
                "resourceType": "Condition",
                "id": "e85a5f6b-a9b4-3f86-a9d7-7095e485351b",
                "identifier": [
                    {
                        "system": "urn:ietf:rfc:3986",
                        "value": "urn:uuid:1.3.6.1.4.1.22812.4.111.0.4.1.32940"
                    }
                ],
                "verificationStatus": {
                    "coding": [
                        {
                            "system": "http://terminology.hl7.org/CodeSystem/condition-ver-status",
                            "code": "confirmed"
                        }
                    ]
                },
                "category": [
                    {
                        "coding": [
                            {
                                "system": "http://snomed.info/sct",
                                "code": "55607006",
                                "display": "Problem"
                            },
                            {
                                "system": "http://terminology.hl7.org/CodeSystem/condition-category",
                                "code": "problem-list-item"
                            }
                        ]
                    }
                ],
                "clinicalStatus": {
                    "coding": [
                        {
                            "system": "http://terminology.hl7.org/CodeSystem/condition-clinical",
                            "code": "inactive"
                        }
                    ]
                },
                "code": {
                    "coding": [
                        {
                            "code": "996.81",
                            "display": "Complications of transplanted kidney",
                            "system": "urn:oid:2.16.840.1.113883.6.103"
                        }
                    ]
                },
                "onsetDateTime": "2011-12-31T05:00:00.000Z",
                "subject": {
                    "reference": "Patient/f40da2df-7505-315a-9acb-55513a02c37b"
                }
            },
            "request": {
                "method": "PUT",
                "url": "Condition/e85a5f6b-a9b4-3f86-a9d7-7095e485351b"
            }
        },
        {
            "fullUrl": "urn:uuid:081341a3-b007-34b2-ad29-d010dad2ddf6",
            "resource": {
                "resourceType": "Condition",
                "id": "081341a3-b007-34b2-ad29-d010dad2ddf6",
                "identifier": [
                    {
                        "system": "urn:ietf:rfc:3986",
                        "value": "urn:uuid:1.3.6.1.4.1.22812.4.111.0.4.1.32941"
                    }
                ],
                "verificationStatus": {
                    "coding": [
                        {
                            "system": "http://terminology.hl7.org/CodeSystem/condition-ver-status",
                            "code": "confirmed"
                        }
                    ]
                },
                "category": [
                    {
                        "coding": [
                            {
                                "system": "http://snomed.info/sct",
                                "code": "55607006",
                                "display": "Problem"
                            },
                            {
                                "system": "http://terminology.hl7.org/CodeSystem/condition-category",
                                "code": "problem-list-item"
                            }
                        ]
                    }
                ],
                "clinicalStatus": {
                    "coding": [
                        {
                            "system": "http://terminology.hl7.org/CodeSystem/condition-clinical",
                            "code": "inactive"
                        }
                    ]
                },
                "code": {
                    "coding": [
                        {
                            "code": "780.60",
                            "display": "Fever, unspecified",
                            "system": "urn:oid:2.16.840.1.113883.6.103"
                        }
                    ]
                },
                "onsetDateTime": "2015-06-22T04:00:00.000Z",
                "subject": {
                    "reference": "Patient/f40da2df-7505-315a-9acb-55513a02c37b"
                }
            },
            "request": {
                "method": "PUT",
                "url": "Condition/081341a3-b007-34b2-ad29-d010dad2ddf6"
            }
        },
        {
            "fullUrl": "urn:uuid:e2717651-459a-32eb-a348-427144ccf9cd",
            "resource": {
                "resourceType": "Condition",
                "id": "e2717651-459a-32eb-a348-427144ccf9cd",
                "identifier": [
                    {
                        "system": "urn:ietf:rfc:3986",
                        "value": "urn:uuid:1.3.6.1.4.1.22812.4.111.0.4.1.32938"
                    }
                ],
                "verificationStatus": {
                    "coding": [
                        {
                            "system": "http://terminology.hl7.org/CodeSystem/condition-ver-status",
                            "code": "confirmed"
                        }
                    ]
                },
                "category": [
                    {
                        "coding": [
                            {
                                "system": "http://snomed.info/sct",
                                "code": "55607006",
                                "display": "Problem"
                            },
                            {
                                "system": "http://terminology.hl7.org/CodeSystem/condition-category",
                                "code": "problem-list-item"
                            }
                        ]
                    }
                ],
                "clinicalStatus": {
                    "coding": [
                        {
                            "system": "http://terminology.hl7.org/CodeSystem/condition-clinical",
                            "code": "inactive"
                        }
                    ]
                },
                "code": {
                    "coding": [
                        {
                            "code": "401.9",
                            "display": "Unspecified essential hypertension",
                            "system": "urn:oid:2.16.840.1.113883.6.103"
                        }
                    ]
                },
                "onsetDateTime": "2011-10-05T04:00:00.000Z",
                "subject": {
                    "reference": "Patient/f40da2df-7505-315a-9acb-55513a02c37b"
                }
            },
            "request": {
                "method": "PUT",
                "url": "Condition/e2717651-459a-32eb-a348-427144ccf9cd"
            }
        },
        {
            "fullUrl": "urn:uuid:767e0192-6340-39d6-9075-7520af641c48",
            "resource": {
                "resourceType": "Condition",
                "id": "767e0192-6340-39d6-9075-7520af641c48",
                "identifier": [
                    {
                        "system": "urn:ietf:rfc:3986",
                        "value": "urn:uuid:1.3.6.1.4.1.22812.4.111.0.4.1.32942"
                    }
                ],
                "verificationStatus": {
                    "coding": [
                        {
                            "system": "http://terminology.hl7.org/CodeSystem/condition-ver-status",
                            "code": "confirmed"
                        }
                    ]
                },
                "category": [
                    {
                        "coding": [
                            {
                                "system": "http://snomed.info/sct",
                                "code": "55607006",
                                "display": "Problem"
                            },
                            {
                                "system": "http://terminology.hl7.org/CodeSystem/condition-category",
                                "code": "problem-list-item"
                            }
                        ]
                    }
                ],
                "clinicalStatus": {
                    "coding": [
                        {
                            "system": "http://terminology.hl7.org/CodeSystem/condition-clinical",
                            "code": "inactive"
                        }
                    ]
                },
                "code": {
                    "coding": [
                        {
                            "code": "278.02",
                            "display": "Overweight",
                            "system": "urn:oid:2.16.840.1.113883.6.103"
                        }
                    ]
                },
                "onsetDateTime": "2006-12-31T05:00:00.000Z",
                "subject": {
                    "reference": "Patient/f40da2df-7505-315a-9acb-55513a02c37b"
                }
            },
            "request": {
                "method": "PUT",
                "url": "Condition/767e0192-6340-39d6-9075-7520af641c48"
            }
        },
        {
            "fullUrl": "urn:uuid:58601255-c024-3732-af75-5e47f9b2cba2",
            "resource": {
                "resourceType": "DiagnosticReport",
                "id": "58601255-c024-3732-af75-5e47f9b2cba2",
                "identifier": [
                    {
                        "system": "urn:ietf:rfc:3986",
                        "value": "urn:uuid:e5d8fe7d-8aec-422e-a510-9049da7dff56"
                    }
                ],
                "status": "final",
                "category": [
                    {
                        "coding": [
                            {
                                "system": "http://terminology.hl7.org/CodeSystem/v2-0074",
                                "code": "LAB",
                                "display": "Laboratory"
                            }
                        ]
                    }
                ],
                "code": {
                    "coding": [
                        {
                            "system": "http://terminology.hl7.org/CodeSystem/v2-0074",
                            "code": "LAB",
                            "display": "Urinanalysis macro (dipstick) panel"
                        }
                    ],
                    "text": "Urinanalysis macro (dipstick) panel"
                },
                "effectivePeriod": {
                    "start": "2015-06-22T00:00:00.000Z",
                    "end": "2015-06-22T00:00:00.000Z"
                },
                "issued": "2015-06-22T00:00:00.000Z",
                "subject": {
                    "reference": "Patient/f40da2df-7505-315a-9acb-55513a02c37b"
                },
                "result": [
                    {
                        "reference": "Observation/ff8a674c-1309-30da-a6ae-3bd8cc0d0111"
                    },
                    {
                        "reference": "Observation/dfd679c8-0934-3c22-a9a0-219b58bff3ed"
                    },
                    {
                        "reference": "Observation/87ce829a-df9d-35f1-8160-2118442f98a0"
                    },
                    {
                        "reference": "Observation/ef127828-6b8b-3bce-9038-ed8032d5b02c"
                    },
                    {
                        "reference": "Observation/2ee40555-e7b0-30b4-a026-70ba89658f69"
                    },
                    {
                        "reference": "Observation/41634d3a-7132-3635-99a1-14e3deffce8a"
                    },
                    {
                        "reference": "Observation/d461d543-d50d-3a2b-96d0-79a19cf89e34"
                    }
                ]
            },
            "request": {
                "method": "PUT",
                "url": "DiagnosticReport/58601255-c024-3732-af75-5e47f9b2cba2"
            }
        },
        {
            "fullUrl": "urn:uuid:ff8a674c-1309-30da-a6ae-3bd8cc0d0111",
            "resource": {
                "resourceType": "Observation",
                "meta": {
                    "profile": [
                        "http://hl7.org/fhir/us/core/StructureDefinition/us-core-observationresults"
                    ]
                },
                "id": "ff8a674c-1309-30da-a6ae-3bd8cc0d0111",
                "identifier": [
                    {
                        "system": "urn:ietf:rfc:3986",
                        "value": "urn:uuid:78f5fd11-14eb-47a5-9629-8e8a26883e12"
                    }
                ],
                "category": [
                    {
                        "coding": [
                            {
                                "system": "http://terminology.hl7.org/CodeSystem/observation-category",
                                "code": "laboratory"
                            }
                        ]
                    }
                ],
                "status": "final",
                "code": {
                    "coding": [
                        {
                            "code": "5778-6",
                            "display": "Color of Urine",
                            "system": "http://loinc.org"
                        }
                    ]
                },
                "effectiveDateTime": "2015-06-22T00:00:00.000Z",
                "issued": "2015-06-22T00:00:00.000Z",
                "valueString": "Yellow",
                "subject": {
                    "reference": "Patient/f40da2df-7505-315a-9acb-55513a02c37b"
                }
            },
            "request": {
                "method": "PUT",
                "url": "Observation/ff8a674c-1309-30da-a6ae-3bd8cc0d0111"
            }
        },
        {
            "fullUrl": "urn:uuid:dfd679c8-0934-3c22-a9a0-219b58bff3ed",
            "resource": {
                "resourceType": "Observation",
                "meta": {
                    "profile": [
                        "http://hl7.org/fhir/us/core/StructureDefinition/us-core-observationresults"
                    ]
                },
                "id": "dfd679c8-0934-3c22-a9a0-219b58bff3ed",
                "identifier": [
                    {
                        "system": "urn:ietf:rfc:3986",
                        "value": "urn:uuid:5aa4db1b-fb7d-4923-aaf6-8ace90c46616"
                    }
                ],
                "category": [
                    {
                        "coding": [
                            {
                                "system": "http://terminology.hl7.org/CodeSystem/observation-category",
                                "code": "laboratory"
                            }
                        ]
                    }
                ],
                "status": "final",
                "code": {
                    "coding": [
                        {
                            "code": "5767-9",
                            "display": "Appearance of Urine",
                            "system": "http://loinc.org"
                        }
                    ]
                },
                "effectiveDateTime": "2015-06-22T00:00:00.000Z",
                "issued": "2015-06-22T00:00:00.000Z",
                "valueString": "Clear",
                "subject": {
                    "reference": "Patient/f40da2df-7505-315a-9acb-55513a02c37b"
                }
            },
            "request": {
                "method": "PUT",
                "url": "Observation/dfd679c8-0934-3c22-a9a0-219b58bff3ed"
            }
        },
        {
            "fullUrl": "urn:uuid:87ce829a-df9d-35f1-8160-2118442f98a0",
            "resource": {
                "resourceType": "Observation",
                "meta": {
                    "profile": [
                        "http://hl7.org/fhir/us/core/StructureDefinition/us-core-observationresults"
                    ]
                },
                "id": "87ce829a-df9d-35f1-8160-2118442f98a0",
                "identifier": [
                    {
                        "system": "urn:ietf:rfc:3986",
                        "value": "urn:uuid:44dc45f4-a440-4257-8c39-327d71c0cfc5"
                    }
                ],
                "category": [
                    {
                        "coding": [
                            {
                                "system": "http://terminology.hl7.org/CodeSystem/observation-category",
                                "code": "laboratory"
                            }
                        ]
                    }
                ],
                "status": "final",
                "code": {
                    "coding": [
                        {
                            "code": "5811-5",
                            "display": "Specific gravity of Urine by Test strip",
                            "system": "http://loinc.org"
                        }
                    ]
                },
                "effectiveDateTime": "2015-06-22T00:00:00.000Z",
                "issued": "2015-06-22T00:00:00.000Z",
                "valueQuantity": {
                    "value": 1.015,
                    "unit": "1",
                    "system": "http://unitsofmeasure.org",
                    "code": "1"
                },
                "referenceRange": [
                    {
                        "low": {
                            "value": 1.005,
                            "unit": "1"
                        },
                        "high": {
                            "value": 1.03,
                            "unit": "1"
                        }
                    }
                ],
                "subject": {
                    "reference": "Patient/f40da2df-7505-315a-9acb-55513a02c37b"
                }
            },
            "request": {
                "method": "PUT",
                "url": "Observation/87ce829a-df9d-35f1-8160-2118442f98a0"
            }
        },
        {
            "fullUrl": "urn:uuid:ef127828-6b8b-3bce-9038-ed8032d5b02c",
            "resource": {
                "resourceType": "Observation",
                "meta": {
                    "profile": [
                        "http://hl7.org/fhir/us/core/StructureDefinition/us-core-observationresults"
                    ]
                },
                "id": "ef127828-6b8b-3bce-9038-ed8032d5b02c",
                "identifier": [
                    {
                        "system": "urn:ietf:rfc:3986",
                        "value": "urn:uuid:cac36aab-412a-4088-9147-9896318f39e8"
                    }
                ],
                "category": [
                    {
                        "coding": [
                            {
                                "system": "http://terminology.hl7.org/CodeSystem/observation-category",
                                "code": "laboratory"
                            }
                        ]
                    }
                ],
                "status": "final",
                "code": {
                    "coding": [
                        {
                            "code": "5803-2",
                            "display": "pH of Urine by Test strip",
                            "system": "http://loinc.org"
                        }
                    ]
                },
                "effectiveDateTime": "2015-06-22T00:00:00.000Z",
                "issued": "2015-06-22T00:00:00.000Z",
                "valueQuantity": {
                    "value": 5,
                    "unit": "[pH]",
                    "system": "http://unitsofmeasure.org",
                    "code": "[pH]"
                },
                "referenceRange": [
                    {
                        "low": {
                            "value": 5,
                            "unit": "[pH]"
                        },
                        "high": {
                            "value": 8,
                            "unit": "[pH]"
                        }
                    }
                ],
                "subject": {
                    "reference": "Patient/f40da2df-7505-315a-9acb-55513a02c37b"
                }
            },
            "request": {
                "method": "PUT",
                "url": "Observation/ef127828-6b8b-3bce-9038-ed8032d5b02c"
            }
        },
        {
            "fullUrl": "urn:uuid:2ee40555-e7b0-30b4-a026-70ba89658f69",
            "resource": {
                "resourceType": "Observation",
                "meta": {
                    "profile": [
                        "http://hl7.org/fhir/us/core/StructureDefinition/us-core-observationresults"
                    ]
                },
                "id": "2ee40555-e7b0-30b4-a026-70ba89658f69",
                "identifier": [
                    {
                        "system": "urn:ietf:rfc:3986",
                        "value": "urn:uuid:001a3e63-bbad-4f1c-929d-8858fd2bbe7e"
                    }
                ],
                "category": [
                    {
                        "coding": [
                            {
                                "system": "http://terminology.hl7.org/CodeSystem/observation-category",
                                "code": "laboratory"
                            }
                        ]
                    }
                ],
                "status": "final",
                "code": {
                    "coding": [
                        {
                            "code": "5792-7",
                            "display": "Glucose[Mass/volume] in urine by test strip",
                            "system": "http://loinc.org"
                        }
                    ]
                },
                "effectiveDateTime": "2015-06-22T00:00:00.000Z",
                "issued": "2015-06-22T00:00:00.000Z",
                "valueQuantity": {
                    "value": 50,
                    "unit": "mg/dL",
                    "system": "http://unitsofmeasure.org",
                    "code": "mg/dL"
                },
                "subject": {
                    "reference": "Patient/f40da2df-7505-315a-9acb-55513a02c37b"
                }
            },
            "request": {
                "method": "PUT",
                "url": "Observation/2ee40555-e7b0-30b4-a026-70ba89658f69"
            }
        },
        {
            "fullUrl": "urn:uuid:41634d3a-7132-3635-99a1-14e3deffce8a",
            "resource": {
                "resourceType": "Observation",
                "meta": {
                    "profile": [
                        "http://hl7.org/fhir/us/core/StructureDefinition/us-core-observationresults"
                    ]
                },
                "id": "41634d3a-7132-3635-99a1-14e3deffce8a",
                "identifier": [
                    {
                        "system": "urn:ietf:rfc:3986",
                        "value": "urn:uuid:974679fc-9cca-45a6-8292-e6d109d75bd6"
                    }
                ],
                "category": [
                    {
                        "coding": [
                            {
                                "system": "http://terminology.hl7.org/CodeSystem/observation-category",
                                "code": "laboratory"
                            }
                        ]
                    }
                ],
                "status": "final",
                "code": {
                    "coding": [
                        {
                            "code": "5797-6",
                            "display": "Ketones[Mass/volume] in urine by test strip",
                            "system": "http://loinc.org"
                        }
                    ]
                },
                "effectiveDateTime": "2015-06-22T00:00:00.000Z",
                "issued": "2015-06-22T00:00:00.000Z",
                "valueString": "Negative",
                "subject": {
                    "reference": "Patient/f40da2df-7505-315a-9acb-55513a02c37b"
                }
            },
            "request": {
                "method": "PUT",
                "url": "Observation/41634d3a-7132-3635-99a1-14e3deffce8a"
            }
        },
        {
            "fullUrl": "urn:uuid:d461d543-d50d-3a2b-96d0-79a19cf89e34",
            "resource": {
                "resourceType": "Observation",
                "meta": {
                    "profile": [
                        "http://hl7.org/fhir/us/core/StructureDefinition/us-core-observationresults"
                    ]
                },
                "id": "d461d543-d50d-3a2b-96d0-79a19cf89e34",
                "identifier": [
                    {
                        "system": "urn:ietf:rfc:3986",
                        "value": "urn:uuid:77d90080-1024-4209-9752-9f91006122a3"
                    }
                ],
                "category": [
                    {
                        "coding": [
                            {
                                "system": "http://terminology.hl7.org/CodeSystem/observation-category",
                                "code": "laboratory"
                            }
                        ]
                    }
                ],
                "status": "final",
                "code": {
                    "coding": [
                        {
                            "code": "5804-0",
                            "display": "Protein[Mass/volume] in urine by test strip",
                            "system": "http://loinc.org"
                        }
                    ]
                },
                "effectiveDateTime": "2015-06-22T00:00:00.000Z",
                "issued": "2015-06-22T00:00:00.000Z",
                "valueQuantity": {
                    "value": 100,
                    "unit": "mg/dL",
                    "system": "http://unitsofmeasure.org",
                    "code": "mg/dL"
                },
                "subject": {
                    "reference": "Patient/f40da2df-7505-315a-9acb-55513a02c37b"
                }
            },
            "request": {
                "method": "PUT",
                "url": "Observation/d461d543-d50d-3a2b-96d0-79a19cf89e34"
            }
        },
        {
            "fullUrl": "urn:uuid:66de92a3-35b4-3343-a357-b1e4dfa7c0ce",
            "resource": {
                "resourceType": "DiagnosticReport",
                "id": "66de92a3-35b4-3343-a357-b1e4dfa7c0ce",
                "identifier": [
                    {
                        "system": "urn:ietf:rfc:3986",
                        "value": "urn:uuid:46224ea2-971e-485d-9387-fddfd8cc92ea"
                    }
                ],
                "status": "final",
                "category": [
                    {
                        "coding": [
                            {
                                "system": "http://terminology.hl7.org/CodeSystem/v2-0074",
                                "code": "LAB",
                                "display": "Laboratory"
                            }
                        ]
                    }
                ],
                "code": {
                    "coding": [
                        {
                            "system": "http://terminology.hl7.org/CodeSystem/v2-0074",
                            "code": "LAB",
                            "display": "Chest X-ray 2 Views"
                        }
                    ],
                    "text": "Chest X-ray 2 Views"
                },
                "effectivePeriod": {
                    "start": "2015-06-22T00:00:00.000Z",
                    "end": "2015-06-22T00:00:00.000Z"
                },
                "issued": "2015-06-22T00:00:00.000Z",
                "subject": {
                    "reference": "Patient/f40da2df-7505-315a-9acb-55513a02c37b"
                },
                "result": [
                    {
                        "reference": "Observation/aee99301-a1b5-3569-8fb2-b81400ba2f43"
                    }
                ]
            },
            "request": {
                "method": "PUT",
                "url": "DiagnosticReport/66de92a3-35b4-3343-a357-b1e4dfa7c0ce"
            }
        },
        {
            "fullUrl": "urn:uuid:aee99301-a1b5-3569-8fb2-b81400ba2f43",
            "resource": {
                "resourceType": "Observation",
                "meta": {
                    "profile": [
                        "http://hl7.org/fhir/us/core/StructureDefinition/us-core-observationresults"
                    ]
                },
                "id": "aee99301-a1b5-3569-8fb2-b81400ba2f43",
                "identifier": [
                    {
                        "system": "urn:ietf:rfc:3986",
                        "value": "urn:uuid:50779520-c779-4049-806b-7a99d2d2722a"
                    }
                ],
                "category": [
                    {
                        "coding": [
                            {
                                "system": "http://terminology.hl7.org/CodeSystem/observation-category",
                                "code": "laboratory"
                            }
                        ]
                    }
                ],
                "status": "final",
                "code": {
                    "coding": [
                        {
                            "code": "36643-5",
                            "display": "Chest X-ray 2 Views",
                            "system": "http://loinc.org"
                        }
                    ]
                },
                "effectiveDateTime": "2015-06-22T00:00:00.000Z",
                "issued": "2015-06-22T00:00:00.000Z",
                "valueString": "Lungs are not clear, cannot rule out Anemia. Other tests are required to determine the presence or absence of Anemia.",
                "subject": {
                    "reference": "Patient/f40da2df-7505-315a-9acb-55513a02c37b"
                }
            },
            "request": {
                "method": "PUT",
                "url": "Observation/aee99301-a1b5-3569-8fb2-b81400ba2f43"
            }
        },
        {
            "fullUrl": "urn:uuid:e547f21e-9f3b-3368-b546-05393f577394",
            "resource": {
                "resourceType": "Observation",
                "meta": {
                    "profile": [
                        "http://hl7.org/fhir/us/core/StructureDefinition/us-core-observationresults"
                    ]
                },
                "id": "e547f21e-9f3b-3368-b546-05393f577394",
                "category": [
                    {
                        "coding": [
                            {
                                "system": "http://terminology.hl7.org/CodeSystem/observation-category",
                                "code": "social-history"
                            }
                        ]
                    }
                ],
                "status": "final",
                "code": {
                    "coding": [
                        {
                            "code": "ASSERTION",
                            "display": "Assertion",
                            "system": "urn:oid:2.16.840.1.113883.5.4"
                        }
                    ]
                },
                "effectiveDateTime": "2015-06-22T04:00:00.000Z",
                "issued": "2015-06-22T04:00:00.000Z",
                "valueCodeableConcept": {
                    "coding": [
                        {
                            "code": "449868002",
                            "display": "Smokes tobacco daily",
                            "system": "http://snomed.info/sct"
                        }
                    ]
                },
                "subject": {
                    "reference": "Patient/f40da2df-7505-315a-9acb-55513a02c37b"
                }
            },
            "request": {
                "method": "PUT",
                "url": "Observation/e547f21e-9f3b-3368-b546-05393f577394"
            }
        },
        {
            "fullUrl": "urn:uuid:dd5a0dd1-e58c-34b6-8460-b18686169d0c",
            "resource": {
                "resourceType": "Observation",
                "meta": {
                    "profile": [
                        "http://hl7.org/fhir/us/core/StructureDefinition/us-core-observationresults"
                    ]
                },
                "id": "dd5a0dd1-e58c-34b6-8460-b18686169d0c",
                "category": [
                    {
                        "coding": [
                            {
                                "system": "http://terminology.hl7.org/CodeSystem/observation-category",
                                "code": "social-history"
                            }
                        ]
                    }
                ],
                "status": "final",
                "code": {
                    "coding": [
                        {
                            "code": "76689-9",
                            "system": "http://loinc.org"
                        }
                    ]
                },
                "valueCodeableConcept": {
                    "coding": [
                        {
                            "code": "F",
                            "display": "Female",
                            "system": "urn:oid:2.16.840.1.113883.5.1"
                        }
                    ]
                },
                "subject": {
                    "reference": "Patient/f40da2df-7505-315a-9acb-55513a02c37b"
                }
            },
            "request": {
                "method": "PUT",
                "url": "Observation/dd5a0dd1-e58c-34b6-8460-b18686169d0c"
            }
        },
        {
            "fullUrl": "urn:uuid:fcc079c2-3b24-374c-98f0-15156bf19553",
            "resource": {
                "resourceType": "Observation",
                "meta": {
                    "profile": [
                        "http://hl7.org/fhir/us/core/StructureDefinition/us-core-observationresults"
                    ]
                },
                "id": "fcc079c2-3b24-374c-98f0-15156bf19553",
                "category": [
                    {
                        "coding": [
                            {
                                "system": "http://terminology.hl7.org/CodeSystem/observation-category",
                                "code": "social-history"
                            }
                        ]
                    }
                ],
                "status": "final",
                "code": {
                    "coding": [
                        {
                            "code": "72166-2",
                            "system": "http://loinc.org"
                        }
                    ]
                },
                "effectivePeriod": {
                    "start": "2015-06-22T04:00:00.000Z"
                },
                "issued": "2015-06-22T04:00:00.000Z",
                "valueCodeableConcept": {
                    "coding": [
                        {
                            "code": "8517006",
                            "display": "Former Smoker",
                            "system": "http://snomed.info/sct"
                        }
                    ]
                },
                "subject": {
                    "reference": "Patient/f40da2df-7505-315a-9acb-55513a02c37b"
                }
            },
            "request": {
                "method": "PUT",
                "url": "Observation/fcc079c2-3b24-374c-98f0-15156bf19553"
            }
        },
        {
            "fullUrl": "urn:uuid:bd02d10a-b656-34db-b3a5-ae0fd97194f9",
            "resource": {
                "resourceType": "Observation",
                "meta": {
                    "profile": [
                        "http://hl7.org/fhir/us/core/StructureDefinition/us-core-observationresults"
                    ]
                },
                "id": "bd02d10a-b656-34db-b3a5-ae0fd97194f9",
                "identifier": [
                    {
                        "system": "urn:ietf:rfc:3986",
                        "value": "urn:uuid:1.3.6.1.4.1.22812.4.111.0.4.1.0.0"
                    }
                ],
                "category": [
                    {
                        "coding": [
                            {
                                "system": "http://terminology.hl7.org/CodeSystem/observation-category",
                                "code": "vital-signs"
                            }
                        ]
                    }
                ],
                "status": "final",
                "code": {
                    "coding": [
                        {
                            "code": "3150-0",
                            "display": "Inhaled oxygen concentration",
                            "system": "http://loinc.org"
                        }
                    ]
                },
                "effectiveDateTime": "2015-06-02T14:12:00.000Z",
                "issued": "2015-06-02T14:12:00.000Z",
                "valueQuantity": {
                    "value": 36,
                    "unit": "%",
                    "system": "http://unitsofmeasure.org",
                    "code": "%"
                },
                "subject": {
                    "reference": "Patient/f40da2df-7505-315a-9acb-55513a02c37b"
                }
            },
            "request": {
                "method": "PUT",
                "url": "Observation/bd02d10a-b656-34db-b3a5-ae0fd97194f9"
            }
        },
        {
            "fullUrl": "urn:uuid:f3f76197-1bda-31f3-817e-206f72626013",
            "resource": {
                "resourceType": "Observation",
                "meta": {
                    "profile": [
                        "http://hl7.org/fhir/us/core/StructureDefinition/us-core-observationresults"
                    ]
                },
                "id": "f3f76197-1bda-31f3-817e-206f72626013",
                "identifier": [
                    {
                        "system": "urn:ietf:rfc:3986",
                        "value": "urn:uuid:1.3.6.1.4.1.22812.4.111.0.4.1.1"
                    }
                ],
                "category": [
                    {
                        "coding": [
                            {
                                "system": "http://terminology.hl7.org/CodeSystem/observation-category",
                                "code": "vital-signs"
                            }
                        ]
                    }
                ],
                "status": "final",
                "code": {
                    "coding": [
                        {
                            "code": "85354-9",
                            "display": "Blood pressure panel with all children optional",
                            "system": "http://loinc.org"
                        }
                    ]
                },
                "effectiveDateTime": "2015-06-22T23:59:59.000Z",
                "issued": "2015-06-22T23:59:59.000Z",
                "component": [
                    {
                        "code": {
                            "coding": [
                                {
                                    "system": "http://loinc.org",
                                    "code": "8480-6",
                                    "display": "Systolic blood pressure"
                                }
                            ]
                        },
                        "valueQuantity": {
                            "value": 145,
                            "unit": "mmHg",
                            "system": "http://unitsofmeasure.org",
                            "code": "mm[Hg]"
                        }
                    },
                    {
                        "code": {
                            "coding": [
                                {
                                    "system": "http://loinc.org",
                                    "code": "8462-4",
                                    "display": "Diastolic blood pressure"
                                }
                            ]
                        },
                        "valueQuantity": {
                            "value": 88,
                            "unit": "mmHg",
                            "system": "http://unitsofmeasure.org",
                            "code": "mm[Hg]"
                        }
                    }
                ],
                "subject": {
                    "reference": "Patient/f40da2df-7505-315a-9acb-55513a02c37b"
                }
            },
            "request": {
                "method": "PUT",
                "url": "Observation/f3f76197-1bda-31f3-817e-206f72626013"
            }
        },
        {
            "fullUrl": "urn:uuid:4893d915-1bce-32c9-a50a-4432570b4404",
            "resource": {
                "resourceType": "Observation",
                "meta": {
                    "profile": [
                        "http://hl7.org/fhir/us/core/StructureDefinition/us-core-observationresults"
                    ]
                },
                "id": "4893d915-1bce-32c9-a50a-4432570b4404",
                "identifier": [
                    {
                        "system": "urn:ietf:rfc:3986",
                        "value": "urn:uuid:1.3.6.1.4.1.22812.4.111.0.4.1.1.2"
                    }
                ],
                "category": [
                    {
                        "coding": [
                            {
                                "system": "http://terminology.hl7.org/CodeSystem/observation-category",
                                "code": "vital-signs"
                            }
                        ]
                    }
                ],
                "status": "final",
                "code": {
                    "coding": [
                        {
                            "code": "8302-2",
                            "display": "Body height",
                            "system": "http://loinc.org"
                        }
                    ]
                },
                "effectiveDateTime": "2015-06-22T14:05:00.000Z",
                "issued": "2015-06-22T14:05:00.000Z",
                "valueQuantity": {
                    "value": 177,
                    "unit": "cm",
                    "system": "http://unitsofmeasure.org",
                    "code": "cm"
                },
                "subject": {
                    "reference": "Patient/f40da2df-7505-315a-9acb-55513a02c37b"
                }
            },
            "request": {
                "method": "PUT",
                "url": "Observation/4893d915-1bce-32c9-a50a-4432570b4404"
            }
        },
        {
            "fullUrl": "urn:uuid:889886cd-0df5-3ea5-afb3-39cb8e8f4f18",
            "resource": {
                "resourceType": "Observation",
                "meta": {
                    "profile": [
                        "http://hl7.org/fhir/us/core/StructureDefinition/us-core-observationresults"
                    ]
                },
                "id": "889886cd-0df5-3ea5-afb3-39cb8e8f4f18",
                "identifier": [
                    {
                        "system": "urn:ietf:rfc:3986",
                        "value": "urn:uuid:1.3.6.1.4.1.22812.4.111.0.4.1.1.3"
                    }
                ],
                "category": [
                    {
                        "coding": [
                            {
                                "system": "http://terminology.hl7.org/CodeSystem/observation-category",
                                "code": "vital-signs"
                            }
                        ]
                    }
                ],
                "status": "final",
                "code": {
                    "coding": [
                        {
                            "code": "8310-5",
                            "display": "Body Temperature",
                            "system": "http://loinc.org"
                        }
                    ]
                },
                "effectiveDateTime": "2015-06-22T04:00:00.000Z",
                "issued": "2015-06-22T04:00:00.000Z",
                "valueQuantity": {
                    "value": 38,
                    "unit": "Cel",
                    "system": "http://unitsofmeasure.org",
                    "code": "Cel"
                },
                "subject": {
                    "reference": "Patient/f40da2df-7505-315a-9acb-55513a02c37b"
                }
            },
            "request": {
                "method": "PUT",
                "url": "Observation/889886cd-0df5-3ea5-afb3-39cb8e8f4f18"
            }
        },
        {
            "fullUrl": "urn:uuid:ba364293-9fd9-34e0-8709-3bae3dd5fa45",
            "resource": {
                "resourceType": "Observation",
                "meta": {
                    "profile": [
                        "http://hl7.org/fhir/us/core/StructureDefinition/us-core-observationresults"
                    ]
                },
                "id": "ba364293-9fd9-34e0-8709-3bae3dd5fa45",
                "identifier": [
                    {
                        "system": "urn:ietf:rfc:3986",
                        "value": "urn:uuid:1.3.6.1.4.1.22812.4.111.0.4.1.1.4"
                    }
                ],
                "category": [
                    {
                        "coding": [
                            {
                                "system": "http://terminology.hl7.org/CodeSystem/observation-category",
                                "code": "vital-signs"
                            }
                        ]
                    }
                ],
                "status": "final",
                "code": {
                    "coding": [
                        {
                            "code": "59408-5",
                            "display": "Oxygen saturation in Arterial blood by Pulse oximetry",
                            "system": "http://loinc.org"
                        },
                        {
                            "system": "http://loinc.org",
                            "code": "2708-6",
                            "display": "Oxygen saturation in Arterial blood"
                        }
                    ]
                },
                "effectiveDateTime": "2015-06-22T04:00:00.000Z",
                "issued": "2015-06-22T04:00:00.000Z",
                "valueQuantity": {
                    "value": 95,
                    "unit": "%",
                    "system": "http://unitsofmeasure.org",
                    "code": "%"
                },
                "subject": {
                    "reference": "Patient/f40da2df-7505-315a-9acb-55513a02c37b"
                },
                "component": [
                    {
                        "code": {
                            "coding": [
                                {
                                    "system": "http://loinc.org",
                                    "code": "3151-8",
                                    "display": "Inhaled oxygen flow rate"
                                }
                            ],
                            "text": "Inhaled oxygen flow rate"
                        },
                        "dataAbsentReason": {
                            "coding": [
                                {
                                    "system": "http://terminology.hl7.org/CodeSystem/data-absent-reason",
                                    "code": "unknown",
                                    "display": "Unknown"
                                }
                            ],
                            "text": "Unknown"
                        }
                    },
                    {
                        "code": {
                            "coding": [
                                {
                                    "system": "http://loinc.org",
                                    "code": "3150-0",
                                    "display": "Inhaled oxygen concentration"
                                }
                            ],
                            "text": "Inhaled oxygen concentration"
                        },
                        "dataAbsentReason": {
                            "coding": [
                                {
                                    "system": "http://terminology.hl7.org/CodeSystem/data-absent-reason",
                                    "code": "unknown",
                                    "display": "Unknown"
                                }
                            ],
                            "text": "Unknown"
                        }
                    }
                ]
            },
            "request": {
                "method": "PUT",
                "url": "Observation/ba364293-9fd9-34e0-8709-3bae3dd5fa45"
            }
        },
        {
            "fullUrl": "urn:uuid:c9bc6a0e-a670-3b3a-834b-d61f976642fc",
            "resource": {
                "resourceType": "Observation",
                "meta": {
                    "profile": [
                        "http://hl7.org/fhir/us/core/StructureDefinition/us-core-observationresults"
                    ]
                },
                "id": "c9bc6a0e-a670-3b3a-834b-d61f976642fc",
                "identifier": [
                    {
                        "system": "urn:ietf:rfc:3986",
                        "value": "urn:uuid:1.3.6.1.4.1.22812.4.111.0.4.1.1.5"
                    }
                ],
                "category": [
                    {
                        "coding": [
                            {
                                "system": "http://terminology.hl7.org/CodeSystem/observation-category",
                                "code": "vital-signs"
                            }
                        ]
                    }
                ],
                "status": "final",
                "code": {
                    "coding": [
                        {
                            "code": "8867-4",
                            "display": "Heart Rate",
                            "system": "http://loinc.org"
                        }
                    ]
                },
                "effectiveDateTime": "2015-06-22T04:00:00.000Z",
                "issued": "2015-06-22T04:00:00.000Z",
                "valueQuantity": {
                    "value": 80,
                    "unit": "/min",
                    "system": "http://unitsofmeasure.org",
                    "code": "/min"
                },
                "subject": {
                    "reference": "Patient/f40da2df-7505-315a-9acb-55513a02c37b"
                }
            },
            "request": {
                "method": "PUT",
                "url": "Observation/c9bc6a0e-a670-3b3a-834b-d61f976642fc"
            }
        },
        {
            "fullUrl": "urn:uuid:b8a8e92d-fc94-3cba-8b13-62b635aee332",
            "resource": {
                "resourceType": "Observation",
                "meta": {
                    "profile": [
                        "http://hl7.org/fhir/us/core/StructureDefinition/us-core-observationresults"
                    ]
                },
                "id": "b8a8e92d-fc94-3cba-8b13-62b635aee332",
                "identifier": [
                    {
                        "system": "urn:ietf:rfc:3986",
                        "value": "urn:uuid:1.3.6.1.4.1.22812.4.111.0.4.1.1.6"
                    }
                ],
                "category": [
                    {
                        "coding": [
                            {
                                "system": "http://terminology.hl7.org/CodeSystem/observation-category",
                                "code": "vital-signs"
                            }
                        ]
                    }
                ],
                "status": "final",
                "code": {
                    "coding": [
                        {
                            "code": "9279-1",
                            "display": "Respiratory Rate",
                            "system": "http://loinc.org"
                        }
                    ]
                },
                "effectiveDateTime": "2015-06-22T04:00:00.000Z",
                "issued": "2015-06-22T04:00:00.000Z",
                "valueQuantity": {
                    "value": 18,
                    "unit": "/min",
                    "system": "http://unitsofmeasure.org",
                    "code": "/min"
                },
                "subject": {
                    "reference": "Patient/f40da2df-7505-315a-9acb-55513a02c37b"
                }
            },
            "request": {
                "method": "PUT",
                "url": "Observation/b8a8e92d-fc94-3cba-8b13-62b635aee332"
            }
        },
        {
            "fullUrl": "urn:uuid:4b2bada9-e138-3497-a020-5547b9e76921",
            "resource": {
                "resourceType": "Observation",
                "meta": {
                    "profile": [
                        "http://hl7.org/fhir/us/core/StructureDefinition/us-core-observationresults"
                    ]
                },
                "id": "4b2bada9-e138-3497-a020-5547b9e76921",
                "identifier": [
                    {
                        "system": "urn:ietf:rfc:3986",
                        "value": "urn:uuid:1.3.6.1.4.1.22812.4.111.0.4.1.2.0"
                    }
                ],
                "category": [
                    {
                        "coding": [
                            {
                                "system": "http://terminology.hl7.org/CodeSystem/observation-category",
                                "code": "vital-signs"
                            }
                        ]
                    }
                ],
                "status": "final",
                "code": {
                    "coding": [
                        {
                            "code": "29463-7",
                            "display": "Body weight",
                            "system": "http://loinc.org"
                        }
                    ]
                },
                "effectiveDateTime": "2015-06-23T02:05:00.000Z",
                "issued": "2015-06-23T02:05:00.000Z",
                "valueQuantity": {
                    "value": 88,
                    "unit": "kg",
                    "system": "http://unitsofmeasure.org",
                    "code": "kg"
                },
                "subject": {
                    "reference": "Patient/f40da2df-7505-315a-9acb-55513a02c37b"
                }
            },
            "request": {
                "method": "PUT",
                "url": "Observation/4b2bada9-e138-3497-a020-5547b9e76921"
            }
        },
        {
            "fullUrl": "urn:uuid:dbfddaed-1b11-317b-a3ff-33b829f723d1",
            "resource": {
                "resourceType": "Observation",
                "meta": {
                    "profile": [
                        "http://hl7.org/fhir/us/core/StructureDefinition/us-core-observationresults"
                    ]
                },
                "id": "dbfddaed-1b11-317b-a3ff-33b829f723d1",
                "identifier": [
                    {
                        "system": "urn:ietf:rfc:3986",
                        "value": "urn:uuid:1.3.6.1.4.1.22812.4.111.0.4.1.3"
                    }
                ],
                "category": [
                    {
                        "coding": [
                            {
                                "system": "http://terminology.hl7.org/CodeSystem/observation-category",
                                "code": "vital-signs"
                            }
                        ]
                    }
                ],
                "status": "final",
                "code": {
                    "coding": [
                        {
                            "code": "85354-9",
                            "display": "Blood pressure panel with all children optional",
                            "system": "http://loinc.org"
                        }
                    ]
                },
                "effectiveDateTime": "2021-01-28T23:59:59.000Z",
                "issued": "2021-01-28T23:59:59.000Z",
                "component": [
                    {
                        "code": {
                            "coding": [
                                {
                                    "system": "http://loinc.org",
                                    "code": "8480-6",
                                    "display": "Systolic blood pressure"
                                }
                            ]
                        },
                        "valueQuantity": {
                            "value": 145,
                            "unit": "mmHg",
                            "system": "http://unitsofmeasure.org",
                            "code": "mm[Hg]"
                        }
                    },
                    {
                        "code": {
                            "coding": [
                                {
                                    "system": "http://loinc.org",
                                    "code": "8462-4",
                                    "display": "Diastolic blood pressure"
                                }
                            ]
                        },
                        "valueQuantity": {
                            "value": 90,
                            "unit": "mmHg",
                            "system": "http://unitsofmeasure.org",
                            "code": "mm[Hg]"
                        }
                    }
                ],
                "subject": {
                    "reference": "Patient/f40da2df-7505-315a-9acb-55513a02c37b"
                }
            },
            "request": {
                "method": "PUT",
                "url": "Observation/dbfddaed-1b11-317b-a3ff-33b829f723d1"
            }
        },
        {
            "fullUrl": "urn:uuid:11c099a0-2fc0-3ad7-9cf0-d7a720ea5cfe",
            "resource": {
                "resourceType": "Observation",
                "meta": {
                    "profile": [
                        "http://hl7.org/fhir/us/core/StructureDefinition/us-core-observationresults"
                    ]
                },
                "id": "11c099a0-2fc0-3ad7-9cf0-d7a720ea5cfe",
                "identifier": [
                    {
                        "system": "urn:ietf:rfc:3986",
                        "value": "urn:uuid:1.3.6.1.4.1.22812.4.111.0.4.1.3.0"
                    }
                ],
                "category": [
                    {
                        "coding": [
                            {
                                "system": "http://terminology.hl7.org/CodeSystem/observation-category",
                                "code": "vital-signs"
                            }
                        ]
                    }
                ],
                "status": "final",
                "code": {
                    "coding": [
                        {
                            "code": "29463-7",
                            "display": "Body weight",
                            "system": "http://loinc.org"
                        }
                    ]
                },
                "effectiveDateTime": "2021-01-28T05:00:00.000Z",
                "issued": "2021-01-28T05:00:00.000Z",
                "valueQuantity": {
                    "value": 104,
                    "unit": "kg",
                    "system": "http://unitsofmeasure.org",
                    "code": "kg"
                },
                "subject": {
                    "reference": "Patient/f40da2df-7505-315a-9acb-55513a02c37b"
                }
            },
            "request": {
                "method": "PUT",
                "url": "Observation/11c099a0-2fc0-3ad7-9cf0-d7a720ea5cfe"
            }
        },
        {
            "fullUrl": "urn:uuid:a4bd6cbd-b9f8-3780-b7a8-9d3adda61e52",
            "resource": {
                "resourceType": "Observation",
                "meta": {
                    "profile": [
                        "http://hl7.org/fhir/us/core/StructureDefinition/us-core-observationresults"
                    ]
                },
                "id": "a4bd6cbd-b9f8-3780-b7a8-9d3adda61e52",
                "identifier": [
                    {
                        "system": "urn:ietf:rfc:3986",
                        "value": "urn:uuid:1.3.6.1.4.1.22812.4.111.0.4.1.3.3"
                    }
                ],
                "category": [
                    {
                        "coding": [
                            {
                                "system": "http://terminology.hl7.org/CodeSystem/observation-category",
                                "code": "vital-signs"
                            }
                        ]
                    }
                ],
                "status": "final",
                "code": {
                    "coding": [
                        {
                            "code": "8302-2",
                            "display": "Body height",
                            "system": "http://loinc.org"
                        }
                    ]
                },
                "effectiveDateTime": "2021-01-28T05:00:00.000Z",
                "issued": "2021-01-28T05:00:00.000Z",
                "valueQuantity": {
                    "value": 177,
                    "unit": "cm",
                    "system": "http://unitsofmeasure.org",
                    "code": "cm"
                },
                "subject": {
                    "reference": "Patient/f40da2df-7505-315a-9acb-55513a02c37b"
                }
            },
            "request": {
                "method": "PUT",
                "url": "Observation/a4bd6cbd-b9f8-3780-b7a8-9d3adda61e52"
            }
        },
        {
            "fullUrl": "urn:uuid:c1762f6c-b896-3183-ad94-0aa1c4beab15",
            "resource": {
                "resourceType": "Observation",
                "meta": {
                    "profile": [
                        "http://hl7.org/fhir/us/core/StructureDefinition/us-core-observationresults"
                    ]
                },
                "id": "c1762f6c-b896-3183-ad94-0aa1c4beab15",
                "identifier": [
                    {
                        "system": "urn:ietf:rfc:3986",
                        "value": "urn:uuid:1.3.6.1.4.1.22812.4.111.0.4.1.4"
                    }
                ],
                "category": [
                    {
                        "coding": [
                            {
                                "system": "http://terminology.hl7.org/CodeSystem/observation-category",
                                "code": "vital-signs"
                            }
                        ]
                    }
                ],
                "status": "final",
                "code": {
                    "coding": [
                        {
                            "code": "85354-9",
                            "display": "Blood pressure panel with all children optional",
                            "system": "http://loinc.org"
                        }
                    ]
                },
                "effectiveDateTime": "2021-05-14T23:59:59.000Z",
                "issued": "2021-05-14T23:59:59.000Z",
                "component": [
                    {
                        "code": {
                            "coding": [
                                {
                                    "system": "http://loinc.org",
                                    "code": "8462-4",
                                    "display": "Diastolic blood pressure"
                                }
                            ]
                        },
                        "valueQuantity": {
                            "value": 90,
                            "unit": "mmHg",
                            "system": "http://unitsofmeasure.org",
                            "code": "mm[Hg]"
                        }
                    },
                    {
                        "code": {
                            "coding": [
                                {
                                    "system": "http://loinc.org",
                                    "code": "8480-6",
                                    "display": "Systolic blood pressure"
                                }
                            ]
                        },
                        "valueQuantity": {
                            "value": 160,
                            "unit": "mmHg",
                            "system": "http://unitsofmeasure.org",
                            "code": "mm[Hg]"
                        }
                    }
                ],
                "subject": {
                    "reference": "Patient/f40da2df-7505-315a-9acb-55513a02c37b"
                }
            },
            "request": {
                "method": "PUT",
                "url": "Observation/c1762f6c-b896-3183-ad94-0aa1c4beab15"
            }
        },
        {
            "fullUrl": "urn:uuid:efc450f1-bf82-3df2-91ab-52a0ab34168f",
            "resource": {
                "resourceType": "Procedure",
                "meta": {
                    "profile": [
                        "http://hl7.org/fhir/us/core/StructureDefinition/us-core-procedure"
                    ]
                },
                "id": "efc450f1-bf82-3df2-91ab-52a0ab34168f",
                "identifier": [
                    {
                        "system": "urn:ietf:rfc:3986",
                        "value": "urn:uuid:Procedure-4"
                    }
                ],
                "status": "completed",
                "code": {
                    "coding": [
                        {
                            "code": "56251003",
                            "display": "Nebulizer Therapy",
                            "system": "http://snomed.info/sct"
                        }
                    ]
                },
                "performedPeriod": {
                    "start": "2015-06-22T00:00:00.000Z"
                },
                "subject": {
                    "reference": "Patient/f40da2df-7505-315a-9acb-55513a02c37b"
                }
            },
            "request": {
                "method": "PUT",
                "url": "Procedure/efc450f1-bf82-3df2-91ab-52a0ab34168f"
            }
        },
        {
            "fullUrl": "urn:uuid:dc960e37-29ed-34c8-a651-c832b045ed95",
            "resource": {
                "resourceType": "Procedure",
                "meta": {
                    "profile": [
                        "http://hl7.org/fhir/us/core/StructureDefinition/us-core-procedure"
                    ]
                },
                "id": "dc960e37-29ed-34c8-a651-c832b045ed95",
                "identifier": [
                    {
                        "system": "urn:ietf:rfc:3986",
                        "value": "urn:uuid:Procedure-5"
                    }
                ],
                "status": "completed",
                "code": {
                    "coding": [
                        {
                            "code": "175135009",
                            "display": "Introduction of cardiac pacemaker system via vein",
                            "system": "http://snomed.info/sct"
                        }
                    ]
                },
                "performedPeriod": {
                    "start": "2011-10-05T00:00:00.000Z"
                },
                "subject": {
                    "reference": "Patient/f40da2df-7505-315a-9acb-55513a02c37b"
                }
            },
            "request": {
                "method": "PUT",
                "url": "Procedure/dc960e37-29ed-34c8-a651-c832b045ed95"
            }
        },
        {
            "fullUrl": "urn:uuid:b736f00d-5e7d-3726-a8b9-4ee19ae044ed",
            "resource": {
                "resourceType": "CarePlan",
                "id": "b736f00d-5e7d-3726-a8b9-4ee19ae044ed",
                "text": {
                    "status": "additional",
                    "div": "<div xmlns=\"http://www.w3.org/1999/xhtml\"><list>\n  <item>\n    Urinalysis macro (dipstick) panel | Date: 6/29/15\n    <ID>PlannedObservation2dab4f8583ce44848069b18556d1c183</ID>\n  </item>\n  <item>\n    i. Get an EKG done on 6/23/2015.ii. Get a Chest X-ray done on 6/23/2015 showing the Lower Respiratory TractStructure.iii. Take Clindamycin 300mg three times a day as needed if pain does not subside/iv. Schedule follow on visit with Neighborhood Physicians Practice on7/1/2015.\n    <ID>PlannedObservation7a8da4f2-b8e1-439f-a8dd-40091dd88452</ID>\n  </item>\n</list></div>"
                },
                "title": "Plan of Treatment",
                "category": [
                    {
                        "coding": [
                            {
                                "system": "http://hl7.org/fhir/us/core/CodeSystem/careplan-category",
                                "code": "assess-plan",
                                "display": "Assessment and Plan of Treatment"
                            }
                        ],
                        "text": "Assessment and Plan of Treatment"
                    }
                ],
                "status": "active",
                "intent": "plan",
                "subject": {
                    "reference": "Patient/f40da2df-7505-315a-9acb-55513a02c37b"
                }
            },
            "request": {
                "method": "PUT",
                "url": "CarePlan/b736f00d-5e7d-3726-a8b9-4ee19ae044ed"
            }
        },
        {
            "fullUrl": "urn:uuid:fac7be6d-9182-334a-8aae-5682ddeeb0f2",
            "resource": {
                "resourceType": "Encounter",
                "id": "fac7be6d-9182-334a-8aae-5682ddeeb0f2",
                "status": "finished",
                "class": {
                    "system": "http://terminology.hl7.org/CodeSystem/v3-ActCode",
                    "code": "AMB"
                },
                "type": [
                    {
                        "coding": [
                            {
                                "code": "29308-4",
                                "display": "Diagnosis",
                                "system": "http://loinc.org"
                            }
                        ]
                    }
                ],
                "reasonCode": [
                    {
                        "coding": [
                            {
                                "system": "http://snomed.info/sct",
                                "code": "55607006",
                                "display": "Problem"
                            }
                        ]
                    }
                ],
                "identifier": [
                    {
                        "system": "urn:ietf:rfc:3986",
                        "value": "urn:uuid:91585ca7-92da-458b-be9b-16ec84fbe182"
                    }
                ],
                "period": {
                    "start": "2019-10-16T04:00:00.000Z"
                },
                "location": [
                    {
                        "location": {
                            "reference": "Location/604a79b8-d538-3959-a3ef-5ac66ee03e08"
                        }
                    }
                ],
                "participant": [
                    {
                        "individual": {
                            "reference": "Practitioner/17763d72-7526-32d1-a535-e60859682208"
                        },
                        "period": {
                            "start": "2019-10-16T04:00:00.000Z"
                        },
                        "type": [
                            {
                                "coding": [
                                    {
                                        "system": "http://terminology.hl7.org/CodeSystem/v3-ParticipationType",
                                        "code": "PPRF",
                                        "display": "primary performer"
                                    }
                                ]
                            }
                        ]
                    }
                ],
                "subject": {
                    "reference": "Patient/f40da2df-7505-315a-9acb-55513a02c37b"
                },
                "diagnosis": [
                    {
                        "condition": {
                            "reference": "Condition/5efbd1ce-f284-38e6-9329-1076f7985d55"
                        }
                    }
                ]
            },
            "request": {
                "method": "PUT",
                "url": "Encounter/fac7be6d-9182-334a-8aae-5682ddeeb0f2"
            }
        },
        {
            "fullUrl": "urn:uuid:5efbd1ce-f284-38e6-9329-1076f7985d55",
            "resource": {
                "resourceType": "Condition",
                "id": "5efbd1ce-f284-38e6-9329-1076f7985d55",
                "identifier": [
                    {
                        "system": "urn:ietf:rfc:3986",
                        "value": "urn:uuid:4f400608-8ee4-4165-ae25-03f1f9ec9674"
                    }
                ],
                "verificationStatus": {
                    "coding": [
                        {
                            "system": "http://terminology.hl7.org/CodeSystem/condition-ver-status",
                            "code": "confirmed"
                        }
                    ]
                },
                "category": [
                    {
                        "coding": [
                            {
                                "system": "http://snomed.info/sct",
                                "code": "55607006",
                                "display": "Problem"
                            },
                            {
                                "system": "http://terminology.hl7.org/CodeSystem/condition-category",
                                "code": "problem-list-item"
                            }
                        ]
                    }
                ],
                "clinicalStatus": {
                    "coding": [
                        {
                            "system": "http://terminology.hl7.org/CodeSystem/condition-clinical",
                            "code": "inactive"
                        }
                    ]
                },
                "code": {
                    "coding": [
                        {
                            "code": "780.60",
                            "display": "Fever, unspecified",
                            "system": "urn:oid:2.16.840.1.113883.6.103"
                        }
                    ]
                },
                "onsetDateTime": "2015-06-22T04:00:00.000Z",
                "subject": {
                    "reference": "Patient/f40da2df-7505-315a-9acb-55513a02c37b"
                }
            },
            "request": {
                "method": "PUT",
                "url": "Condition/5efbd1ce-f284-38e6-9329-1076f7985d55"
            }
        },
        {
            "fullUrl": "urn:uuid:8ce55388-9d68-3702-9064-be0267bb6e3d",
            "resource": {
                "resourceType": "Goal",
                "id": "8ce55388-9d68-3702-9064-be0267bb6e3d",
                "description": {
                    "coding": [
                        {
                            "system": "http://loinc.org",
                            "code": "61146-7"
                        }
                    ]
                },
                "lifecycleStatus": "active",
                "target": {
                    "dueDate": "2020-09-28"
                },
                "subject": {
                    "reference": "Patient/f40da2df-7505-315a-9acb-55513a02c37b"
                }
            },
            "request": {
                "method": "PUT",
                "url": "Goal/8ce55388-9d68-3702-9064-be0267bb6e3d"
            }
        },
        {
            "fullUrl": "urn:uuid:4aea1ddc-b0e4-32d0-b4ae-bd19b8f713c1",
            "resource": {
                "resourceType": "Immunization",
                "id": "4aea1ddc-b0e4-32d0-b4ae-bd19b8f713c1",
                "identifier": [
                    {
                        "system": "urn:ietf:rfc:3986",
                        "value": "urn:uuid:fcc808ff-e9c6-4810-8a82-16a6704555d5"
                    }
                ],
                "occurrenceDateTime": "2021-01-28T05:00:00.000Z",
                "vaccineCode": {
                    "coding": [
                        {
                            "code": "207",
                            "display": "SARS-COV-2 (COVID-19) vaccine, mRNA, spike protein, LNP, preservative free, 100 mcg/0.5mL dose",
                            "system": "urn:oid:2.16.840.1.113883.12.292"
                        }
                    ]
                },
                "primarySource": true,
                "status": "completed",
                "statusReason": {
                    "coding": [
                        {
                            "system": "http://terminology.hl7.org/CodeSystem/v3-ActReason",
                            "code": "MEDPREC",
                            "display": "medical precaution"
                        }
                    ]
                },
                "route": {
                    "coding": [
                        {
                            "code": "C28161",
                            "display": "Intramuscular injection",
                            "system": "urn:oid:2.16.840.1.113883.3.26.1.1"
                        }
                    ]
                },
                "patient": {
                    "reference": "Patient/f40da2df-7505-315a-9acb-55513a02c37b"
                }
            },
            "request": {
                "method": "PUT",
                "url": "Immunization/4aea1ddc-b0e4-32d0-b4ae-bd19b8f713c1"
            }
        },
        {
            "fullUrl": "urn:uuid:e7fe50fa-9539-3802-b08d-79c8df38e16c",
            "resource": {
                "resourceType": "Immunization",
                "id": "e7fe50fa-9539-3802-b08d-79c8df38e16c",
                "identifier": [
                    {
                        "system": "urn:ietf:rfc:3986",
                        "value": "urn:uuid:c3985c63-23cc-4015-837f-02606265d430"
                    }
                ],
                "occurrenceDateTime": "2015-06-22T04:00:00.000Z",
                "vaccineCode": {
                    "coding": [
                        {
                            "code": "166",
                            "system": "urn:oid:2.16.840.1.113883.12.292"
                        }
                    ]
                },
                "primarySource": true,
                "status": "cancelled",
                "statusReason": {
                    "coding": [
                        {
                            "system": "http://terminology.hl7.org/CodeSystem/v3-ActReason",
                            "code": "MEDPREC",
                            "display": "medical precaution"
                        }
                    ]
                },
                "patient": {
                    "reference": "Patient/f40da2df-7505-315a-9acb-55513a02c37b"
                }
            },
            "request": {
                "method": "PUT",
                "url": "Immunization/e7fe50fa-9539-3802-b08d-79c8df38e16c"
            }
        },
        {
            "fullUrl": "urn:uuid:47fc0a61-d3db-3d5b-a280-477eb69f11dc",
            "resource": {
                "resourceType": "Immunization",
                "id": "47fc0a61-d3db-3d5b-a280-477eb69f11dc",
                "identifier": [
                    {
                        "system": "urn:ietf:rfc:3986",
                        "value": "urn:uuid:23ada882-d995-4332-8aae-f3dd6b642ee5"
                    }
                ],
                "occurrenceDateTime": "2012-01-04T06:00:00.000Z",
                "vaccineCode": {
                    "coding": [
                        {
                            "code": "106",
                            "display": "diphtheria, tetanus toxoids and acellular pertussis vaccine, 5 pertussis antigens",
                            "system": "urn:oid:2.16.840.1.113883.12.292"
                        }
                    ]
                },
                "primarySource": true,
                "status": "completed",
                "statusReason": {
                    "coding": [
                        {
                            "system": "http://terminology.hl7.org/CodeSystem/v3-ActReason",
                            "code": "MEDPREC",
                            "display": "medical precaution"
                        }
                    ]
                },
                "route": {
                    "coding": [
                        {
                            "code": "C28161",
                            "display": "Intramuscular injection",
                            "system": "urn:oid:2.16.840.1.113883.3.26.1.1"
                        }
                    ]
                },
                "patient": {
                    "reference": "Patient/f40da2df-7505-315a-9acb-55513a02c37b"
                }
            },
            "request": {
                "method": "PUT",
                "url": "Immunization/47fc0a61-d3db-3d5b-a280-477eb69f11dc"
            }
        },
        {
            "fullUrl": "urn:uuid:296600cb-6150-34cf-b1d0-9eacc07cc506",
            "resource": {
                "resourceType": "Procedure",
                "meta": {
                    "profile": [
                        "http://hl7.org/fhir/us/core/StructureDefinition/us-core-procedure"
                    ]
                },
                "id": "296600cb-6150-34cf-b1d0-9eacc07cc506",
                "identifier": [
                    {
                        "system": "urn:oid:1.2.840.114350.1.13.5552.1.7.2.737780",
                        "value": "2744"
                    }
                ],
                "status": "active",
                "performedPeriod": {
                    "start": "2011-10-05T00:00:00.000Z"
                },
                "subject": {
                    "reference": "Patient/f40da2df-7505-315a-9acb-55513a02c37b"
                }
            },
            "request": {
                "method": "PUT",
                "url": "Procedure/296600cb-6150-34cf-b1d0-9eacc07cc506"
            }
        },
        {
            "fullUrl": "urn:uuid:ab113d24-84ce-389b-bba3-2b1a17d1a6a3",
            "resource": {
                "resourceType": "DocumentReference",
                "id": "ab113d24-84ce-389b-bba3-2b1a17d1a6a3",
                "type": {
                    "coding": [
                        {
                            "code": "34133-9",
                            "display": "Summarization of Episode Note",
                            "system": "http://loinc.org"
                        }
                    ]
                },
                "date": "2022-10-04T14:13:42.580Z",
                "status": "current",
                "content": [
                    {
                        "attachment": {
                            "contentType": "text/plain",
                            "data": "",
                            "hash": "KnSEVXbJZ3LhTTg3kHmDuNHdb0Q="
                        }
                    }
                ]
            },
            "request": {
                "method": "PUT",
                "url": "DocumentReference/ab113d24-84ce-389b-bba3-2b1a17d1a6a3"
            }
        }
    ]
}